* Measurement data measured by REW V5.20.13
* Source: Headset (USB-C to 3.5mm Headphone Jack Adapter), MICROPHONE (Master Volume), L, volume: 0.250
* Format: 256k Log Swept Sine, 1 sweep at -12.0 dBFS with no timing reference
* Dated: 09 30, 24 4:05:09 PM
* REW Settings:
*  C-weighting compensation: Off
*  Target level: 75.0 dB
* Note: ; CP100
* Measurement: JVC HA-FX700 CP100 L
* Smoothing: 1/24 octave
* Frequency Step: 1/48 octave
* Start Frequency: 20.300 Hz
*
* Freq(Hz)	SPL(dB)	Phase(degrees)
20.299999	98.349	-84.4931
20.600000	98.413	-85.1843
20.900000	98.539	-86.4080
21.200001	98.654	-87.5428
21.400000	98.725	-88.2512
21.799999	98.858	-89.6204
22.000000	98.922	-90.2987
22.400000	99.043	-91.6267
22.700001	99.129	-92.5941
23.000000	99.213	-93.5494
23.299999	99.297	-94.5045
23.600000	99.380	-95.4695
24.000000	99.491	-96.7795
24.299999	99.572	-97.7725
24.700001	99.678	-99.0865
25.000000	99.755	-100.0434
25.400000	99.854	-101.2618
25.799999	99.951	-102.4132
26.200001	100.044	-103.5155
26.500000	100.110	-104.3252
26.900000	100.193	-105.3964
27.200001	100.250	-106.1980
27.600000	100.322	-107.2642
28.000000	100.391	-108.3222
28.500000	100.475	-109.6213
29.000000	100.561	-110.8784
29.500000	100.646	-112.0847
30.000000	100.730	-113.2502
30.400000	100.794	-114.1692
30.700001	100.838	-114.8565
31.100000	100.891	-115.7690
31.500000	100.939	-116.6687
32.000000	100.996	-117.7652
32.500000	101.056	-118.8390
33.000000	101.119	-119.9112
33.500000	101.181	-120.9789
34.000000	101.236	-122.0064
34.500000	101.286	-122.9659
35.000000	101.336	-123.8780
35.500000	101.385	-124.7960
36.000000	101.429	-125.7446
36.500000	101.465	-126.6952
37.000000	101.499	-127.6018
37.500000	101.538	-128.4577
38.200001	101.601	-129.6344
38.700001	101.644	-130.4865
39.500000	101.697	-131.8067
40.000000	101.724	-132.5753
40.599998	101.758	-133.4667
41.200001	101.795	-134.3667
41.799999	101.830	-135.2788
42.500000	101.868	-136.3362
43.099998	101.898	-137.2330
43.700001	101.925	-138.1197
44.400002	101.955	-139.1208
45.000000	101.981	-139.9399
45.500000	102.003	-140.6035
46.200001	102.032	-141.5157
46.799999	102.051	-142.2749
47.500000	102.068	-143.1263
48.200001	102.088	-143.9614
48.700001	102.103	-144.5599
49.400002	102.124	-145.3931
50.000000	102.141	-146.0887
50.799999	102.163	-146.9911
51.500000	102.179	-147.7742
52.200001	102.191	-148.5561
53.000000	102.202	-149.4384
53.799999	102.212	-150.2923
54.500000	102.222	-151.0058
55.200001	102.232	-151.6962
56.000000	102.244	-152.4847
57.000000	102.251	-153.4692
58.000000	102.256	-154.4086
59.000000	102.266	-155.3178
60.000000	102.277	-156.2049
60.799999	102.284	-156.9079
61.500000	102.286	-157.5302
62.200001	102.285	-158.1433
63.000000	102.286	-158.8181
64.000000	102.290	-159.6418
65.000000	102.288	-160.4404
66.000000	102.281	-161.2157
67.000000	102.275	-161.9902
68.000000	102.271	-162.7449
69.000000	102.270	-163.4770
70.000000	102.266	-164.2016
71.000000	102.256	-164.9185
72.000000	102.247	-165.6309
73.000000	102.239	-166.3333
74.000000	102.232	-167.0075
75.000000	102.224	-167.6659
76.199997	102.217	-168.4450
77.500000	102.214	-169.2298
78.800003	102.202	-169.9179
80.000000	102.181	-170.5960
81.199997	102.150	-171.3431
82.500000	102.123	-172.1764
83.800003	102.113	-173.0626
85.000000	102.108	-173.8763
86.199997	102.088	-174.5676
87.500000	102.062	-175.0942
88.500000	102.050	-175.3869
90.000000	102.036	-175.8816
91.199997	102.012	-176.5515
92.500000	101.977	-177.3412
93.800003	101.952	-178.0060
95.000000	101.932	-178.5740
96.199997	101.910	-179.1442
97.500000	101.887	-179.7390
98.800003	101.864	179.6855
100.000000	101.840	179.1509
101.500000	101.810	178.4908
103.000000	101.781	177.8446
104.400002	101.752	177.2501
106.000000	101.717	176.5926
107.500000	101.686	175.9853
109.000000	101.653	175.3863
110.599998	101.614	174.7743
112.000000	101.581	174.2537
113.800003	101.541	173.5906
115.000000	101.513	173.1579
117.199997	101.458	172.3790
118.000000	101.439	172.1024
120.599998	101.374	171.2363
122.000000	101.339	170.7741
124.099998	101.289	170.0669
125.000000	101.267	169.7670
126.500000	101.229	169.2852
128.000000	101.193	168.8321
131.500000	101.117	167.7993
132.000000	101.105	167.6539
134.000000	101.057	167.0906
136.000000	101.015	166.5408
138.000000	100.975	165.9801
140.000000	100.930	165.4045
143.000000	100.853	164.6018
145.000000	100.801	164.1029
147.500000	100.740	163.4647
150.000000	100.680	162.8620
152.500000	100.620	162.3041
155.000000	100.560	161.7378
157.500000	100.498	161.1942
160.000000	100.431	160.6521
162.500000	100.358	160.1257
165.000000	100.278	159.6171
167.500000	100.197	159.1190
170.000000	100.115	158.6295
172.500000	100.035	158.1614
175.000000	99.955	157.7143
177.500000	99.876	157.2610
180.000000	99.796	156.8133
182.500000	99.717	156.3936
185.000000	99.638	156.0062
187.500000	99.559	155.6295
190.000000	99.477	155.2305
192.500000	99.396	154.8277
195.000000	99.317	154.4533
197.500000	99.239	154.1011
200.000000	99.164	153.7638
203.000000	99.082	153.3605
206.000000	99.005	152.9503
209.000000	98.928	152.5530
212.000000	98.852	152.1830
214.000000	98.802	151.9437
218.000000	98.701	151.4902
220.000000	98.650	151.2723
224.000000	98.550	150.8356
227.000000	98.477	150.5329
230.000000	98.404	150.2460
233.000000	98.330	149.9626
236.000000	98.256	149.6939
240.000000	98.156	149.3549
243.000000	98.081	149.1050
247.000000	97.983	148.7861
250.000000	97.910	148.5651
254.000000	97.814	148.2827
258.000000	97.718	148.0033
262.000000	97.618	147.7193
265.000000	97.541	147.5212
269.000000	97.444	147.2608
272.000000	97.369	147.0405
276.000000	97.264	146.7875
280.000000	97.163	146.5984
285.000000	97.046	146.3406
290.000000	96.924	146.0581
295.000000	96.800	145.8134
300.000000	96.678	145.6134
304.000000	96.581	145.4731
307.000000	96.508	145.3718
311.000000	96.412	145.2415
315.000000	96.317	145.1144
320.000000	96.202	144.9759
325.000000	96.087	144.8713
330.000000	95.967	144.7555
335.000000	95.855	144.6434
340.000000	95.743	144.5734
345.000000	95.629	144.4930
350.000000	95.518	144.4521
355.000000	95.408	144.4178
360.000000	95.297	144.3849
365.000000	95.186	144.3832
370.000000	95.079	144.3912
375.000000	94.972	144.4005
382.000000	94.822	144.4243
387.000000	94.717	144.4431
395.000000	94.540	144.4931
400.000000	94.434	144.5380
406.000000	94.316	144.6711
412.000000	94.190	144.7958
418.000000	94.069	144.8622
425.000000	93.939	145.0158
431.000000	93.821	145.2086
437.000000	93.700	145.3691
444.000000	93.567	145.5696
450.000000	93.453	145.7433
455.000000	93.358	145.9236
462.000000	93.227	146.1518
468.000000	93.111	146.3709
475.000000	92.983	146.6722
482.000000	92.857	146.9634
487.000000	92.767	147.1705
494.000000	92.643	147.4815
500.000000	92.537	147.7542
508.000000	92.396	148.1449
515.000000	92.280	148.5183
522.000000	92.167	148.8883
530.000000	92.034	149.3342
538.000000	91.900	149.8119
545.000000	91.782	150.2220
552.000000	91.667	150.6140
560.000000	91.543	151.0857
570.000000	91.390	151.7541
580.000000	91.236	152.4337
590.000000	91.087	153.1318
600.000000	90.944	153.8643
608.000000	90.833	154.4722
615.000000	90.739	155.0099
622.000000	90.649	155.5522
630.000000	90.550	156.1707
640.000000	90.431	156.9165
650.000000	90.313	157.6106
660.000000	90.188	158.2768
670.000000	90.052	158.9735
680.000000	89.910	159.7360
690.000000	89.769	160.5649
700.000000	89.636	161.4443
710.000000	89.511	162.3445
720.000000	89.389	163.2484
730.000000	89.269	164.1582
740.000000	89.150	165.0832
750.000000	89.030	166.0427
762.000000	88.884	167.2671
775.000000	88.732	168.7241
788.000000	88.599	170.3122
800.000000	88.499	171.8383
812.000000	88.420	173.3622
825.000000	88.350	174.9670
838.000000	88.289	176.5271
850.000000	88.238	177.9360
862.000000	88.192	179.3190
875.000000	88.148	-179.2034
885.000000	88.118	-178.0766
900.000000	88.078	-176.4045
912.000000	88.052	-175.0804
925.000000	88.031	-173.6548
938.000000	88.015	-172.2357
950.000000	88.006	-170.9322
962.000000	88.002	-169.6486
975.000000	88.003	-168.2813
988.000000	88.008	-166.9268
1000.000000	88.020	-165.6959
1015.000000	88.043	-164.1926
1030.000000	88.074	-162.7159
1044.000000	88.109	-161.3573
1060.000000	88.154	-159.8356
1075.000000	88.201	-158.4439
1090.000000	88.253	-157.0857
1106.000000	88.311	-155.6727
1120.000000	88.365	-154.4659
1138.000000	88.438	-152.9529
1150.000000	88.489	-151.9653
1172.000000	88.585	-150.1963
1180.000000	88.621	-149.5692
1206.000000	88.741	-147.5814
1220.000000	88.807	-146.5428
1241.000000	88.907	-145.0034
1250.000000	88.952	-144.3572
1265.000000	89.026	-143.2985
1280.000000	89.099	-142.2539
1315.000000	89.275	-139.8563
1320.000000	89.302	-139.5225
1340.000000	89.413	-138.2116
1360.000000	89.520	-136.9058
1380.000000	89.626	-135.6132
1400.000000	89.737	-134.3519
1430.000000	89.909	-132.4984
1450.000000	90.026	-131.2853
1475.000000	90.176	-129.7870
1500.000000	90.330	-128.3139
1525.000000	90.487	-126.8721
1550.000000	90.649	-125.4630
1575.000000	90.814	-124.0845
1600.000000	90.982	-122.7306
1625.000000	91.154	-121.4030
1650.000000	91.328	-120.1050
1675.000000	91.507	-118.8386
1700.000000	91.689	-117.6035
1725.000000	91.875	-116.3995
1750.000000	92.065	-115.2269
1775.000000	92.259	-114.0877
1800.000000	92.456	-112.9849
1825.000000	92.655	-111.9159
1850.000000	92.857	-110.8738
1875.000000	93.064	-109.8565
1900.000000	93.274	-108.8692
1925.000000	93.489	-107.9177
1950.000000	93.708	-107.0028
1975.000000	93.930	-106.1260
2000.000000	94.155	-105.2868
2030.000000	94.429	-104.3306
2060.000000	94.708	-103.4318
2090.000000	94.991	-102.5915
2120.000000	95.278	-101.8110
2140.000000	95.471	-101.3237
2180.000000	95.861	-100.4236
2200.000000	96.057	-100.0079
2240.000000	96.454	-99.2372
2270.000000	96.757	-98.7017
2300.000000	97.067	-98.1941
2330.000000	97.388	-97.7216
2360.000000	97.726	-97.3184
2400.000000	98.200	-96.9873
2430.000000	98.564	-96.9488
2470.000000	99.047	-97.1785
2500.000000	99.402	-97.5268
2540.000000	99.864	-98.1787
2580.000000	100.314	-99.0225
2620.000000	100.753	-100.0526
2650.000000	101.073	-100.9490
2690.000000	101.486	-102.3133
2720.000000	101.783	-103.4646
2760.000000	102.161	-105.1679
2800.000000	102.513	-107.0532
2850.000000	102.911	-109.6388
2900.000000	103.256	-112.4371
2950.000000	103.543	-115.3903
3000.000000	103.769	-118.4325
3040.000000	103.906	-120.8801
3070.000000	103.983	-122.7004
3110.000000	104.053	-125.0814
3150.000000	104.085	-127.3849
3200.000000	104.075	-130.1225
3250.000000	104.020	-132.6692
3300.000000	103.929	-134.9987
3350.000000	103.811	-137.0968
3400.000000	103.673	-138.9613
3450.000000	103.523	-140.5992
3500.000000	103.365	-142.0228
3550.000000	103.204	-143.2508
3600.000000	103.045	-144.3059
3650.000000	102.889	-145.2129
3700.000000	102.739	-145.9968
3750.000000	102.595	-146.6810
3820.000000	102.400	-147.5063
3870.000000	102.262	-148.0089
3950.000000	102.040	-148.6160
4000.000000	101.903	-148.8305
4060.000000	101.754	-148.9146
4120.000000	101.628	-148.8779
4180.000000	101.523	-148.8075
4250.000000	101.413	-148.7055
4310.000000	101.321	-148.5276
4370.000000	101.240	-148.1821
4440.000000	101.181	-147.5633
4500.000000	101.179	-146.9493
4550.000000	101.213	-146.4698
4620.000000	101.307	-145.9547
4680.000000	101.422	-145.7162
4750.000000	101.583	-145.7155
4820.000000	101.764	-146.0335
4870.000000	101.900	-146.4628
4940.000000	102.092	-147.3522
5000.000000	102.252	-148.3864
5080.000000	102.446	-150.1621
5150.000000	102.589	-152.0803
5220.000000	102.696	-154.3150
5300.000000	102.761	-157.2070
5380.000000	102.752	-160.3737
5450.000000	102.674	-163.2734
5520.000000	102.528	-166.1919
5600.000000	102.279	-169.4218
5700.000000	101.853	-173.0985
5800.000000	101.327	-176.1795
5900.000000	100.733	-178.5447
6000.000000	100.107	179.8208
6080.000000	99.602	178.9947
6150.000000	99.167	178.5773
6220.000000	98.744	178.4084
6300.000000	98.278	178.4827
6400.000000	97.731	178.9230
6500.000000	97.221	179.6910
6600.000000	96.746	-179.2639
6700.000000	96.304	-177.9799
6800.000000	95.891	-176.4668
6900.000000	95.509	-174.6794
7000.000000	95.177	-172.5756
7100.000000	94.919	-170.3292
7200.000000	94.717	-168.1117
7300.000000	94.559	-165.8785
7400.000000	94.449	-163.6242
7500.000000	94.389	-161.3821
7620.000000	94.380	-158.7450
7750.000000	94.452	-155.9911
7880.000000	94.607	-153.3883
8000.000000	94.818	-151.1698
8120.000000	95.091	-149.1973
8250.000000	95.476	-147.4433
8380.000000	95.974	-146.2340
8500.000000	96.540	-145.7782
8620.000000	97.207	-146.1800
8750.000000	98.030	-147.9224
8850.000000	98.706	-150.4777
9000.000000	99.691	-156.8425
9120.000000	100.320	-164.4017
9250.000000	100.668	-174.7671
9380.000000	100.547	173.8069
9500.000000	100.005	163.8175
9620.000000	99.135	155.4790
9750.000000	97.972	148.7818
9880.000000	96.736	144.3390
10000.000000	95.626	141.8267
10150.000000	94.358	140.2324
10300.000000	93.248	139.8085
10440.000000	92.353	140.0980
10600.000000	91.485	140.9285
10750.000000	90.810	141.9852
10900.000000	90.260	143.1706
11060.000000	89.802	144.4668
11200.000000	89.509	145.5450
11380.000000	89.277	146.7260
11500.000000	89.213	147.3119
11720.000000	89.291	147.7589
11800.000000	89.384	147.6510
12060.000000	89.930	145.8320
12200.000000	90.377	143.5533
12410.000000	91.200	137.5485
12500.000000	91.574	133.7359
12650.000000	92.133	125.3963
12800.000000	92.471	114.5634
13150.000000	91.687	84.6324
13200.000000	91.381	80.6199
13400.000000	89.802	66.8454
13600.000000	87.916	56.9387
13800.000000	86.004	50.1281
14000.000000	84.224	45.3584
14300.000000	81.900	40.3162
14500.000000	80.577	37.6331
14750.000000	79.150	34.5342
15000.000000	77.949	31.4004
15250.000000	76.955	28.0363
15500.000000	76.165	24.3256
15750.000000	75.602	20.1059
16000.000000	75.297	15.0648
16250.000000	75.278	8.6088
16500.000000	75.524	-0.1429
16750.000000	75.915	-11.8657
17000.000000	76.300	-26.5133
17250.000000	76.604	-43.4668
17500.000000	76.861	-62.0929
17750.000000	77.168	-82.3573
18000.000000	77.588	-105.0112
18250.000000	78.057	-131.1231
18500.000000	78.411	-161.3602
18750.000000	78.474	164.3853
19000.000000	78.130	126.8941
19250.000000	77.348	87.2782
19500.000000	76.188	46.8465
19750.000000	74.830	9.5737
