* Measurement data measured by REW V5.20.13
* Source: Headset (USB-C to 3.5mm Headphone Jack Adapter), MICROPHONE (Master Volume), L, volume: 0.250
* Format: 256k Log Swept Sine, 1 sweep at -12.0 dBFS with no timing reference
* Dated: 09 30, 24 4:22:51 PM
* REW Settings:
*  C-weighting compensation: Off
*  Target level: 75.0 dB
* Note: ; CP100
* Measurement: JVC HA-FX700 CP100 8K R
* Smoothing: 1/24 octave
* Frequency Step: 1/48 octave
* Start Frequency: 20.300 Hz
*
* Freq(Hz)	SPL(dB)	Phase(degrees)
20.299999	99.364	-88.7849
20.600000	99.419	-89.4758
20.900000	99.529	-90.7105
21.200001	99.631	-91.8875
21.400000	99.695	-92.6462
21.799999	99.819	-94.1659
22.000000	99.880	-94.9387
22.400000	99.999	-96.4713
22.700001	100.084	-97.5777
23.000000	100.166	-98.6305
23.299999	100.247	-99.6247
23.600000	100.327	-100.5672
24.000000	100.434	-101.7653
24.299999	100.512	-102.6396
24.700001	100.612	-103.7919
25.000000	100.682	-104.6525
25.400000	100.770	-105.7975
25.799999	100.853	-106.9397
26.200001	100.933	-108.0779
26.500000	100.990	-108.9264
26.900000	101.065	-110.0449
27.200001	101.120	-110.8696
27.600000	101.191	-111.9467
28.000000	101.260	-112.9993
28.500000	101.342	-114.2852
29.000000	101.416	-115.5418
29.500000	101.486	-116.7758
30.000000	101.554	-118.0085
30.400000	101.608	-119.0077
30.700001	101.647	-119.7629
31.100000	101.696	-120.7581
31.500000	101.742	-121.7127
32.000000	101.798	-122.8216
32.500000	101.857	-123.8532
33.000000	101.915	-124.8563
33.500000	101.966	-125.8539
34.000000	102.008	-126.8286
34.500000	102.046	-127.7675
35.000000	102.088	-128.6975
35.500000	102.135	-129.6620
36.000000	102.179	-130.6623
36.500000	102.215	-131.6512
37.000000	102.247	-132.5801
37.500000	102.277	-133.4462
38.200001	102.320	-134.6169
38.700001	102.349	-135.4555
39.500000	102.388	-136.7902
40.000000	102.410	-137.6069
40.599998	102.437	-138.5703
41.200001	102.464	-139.5194
41.799999	102.489	-140.4539
42.500000	102.516	-141.5200
43.099998	102.538	-142.4051
43.700001	102.560	-143.2621
44.400002	102.583	-144.2380
45.000000	102.597	-145.0587
45.500000	102.605	-145.7249
46.200001	102.615	-146.6297
46.799999	102.626	-147.4006
47.500000	102.643	-148.3176
48.200001	102.658	-149.2338
48.700001	102.667	-149.8699
49.400002	102.679	-150.7316
50.000000	102.687	-151.4504
50.799999	102.698	-152.3812
51.500000	102.706	-153.1722
52.200001	102.711	-153.9489
53.000000	102.712	-154.8165
53.799999	102.710	-155.6640
54.500000	102.708	-156.4024
55.200001	102.706	-157.1415
56.000000	102.703	-157.9779
57.000000	102.700	-158.9849
58.000000	102.696	-159.9414
59.000000	102.689	-160.8861
60.000000	102.677	-161.8187
60.799999	102.667	-162.5393
61.500000	102.659	-163.1496
62.200001	102.652	-163.7518
63.000000	102.644	-164.4491
64.000000	102.632	-165.3223
65.000000	102.622	-166.1479
66.000000	102.609	-166.9237
67.000000	102.591	-167.6811
68.000000	102.572	-168.4416
69.000000	102.555	-169.1971
70.000000	102.537	-169.9431
71.000000	102.515	-170.6738
72.000000	102.492	-171.3783
73.000000	102.472	-172.0587
74.000000	102.451	-172.7253
75.000000	102.428	-173.3886
76.199997	102.399	-174.1647
77.500000	102.361	-174.9581
78.800003	102.318	-175.7322
80.000000	102.286	-176.4650
81.199997	102.261	-177.1676
82.500000	102.226	-177.9227
83.800003	102.181	-178.6880
85.000000	102.161	-179.3676
86.199997	102.153	179.9984
87.500000	102.122	179.3190
88.500000	102.083	178.7760
90.000000	102.050	178.0560
91.199997	102.038	177.5927
92.500000	101.995	177.0524
93.800003	101.931	176.3714
95.000000	101.882	175.7405
96.199997	101.845	175.1796
97.500000	101.804	174.6127
98.800003	101.759	174.0689
100.000000	101.717	173.5535
101.500000	101.673	172.8591
103.000000	101.639	172.1347
104.400002	101.606	171.4740
106.000000	101.546	170.8467
107.500000	101.486	170.3234
109.000000	101.431	169.8151
110.599998	101.368	169.3094
112.000000	101.315	168.8113
113.800003	101.261	168.1518
115.000000	101.226	167.7580
117.199997	101.152	167.0791
118.000000	101.124	166.8468
120.599998	101.022	166.0563
122.000000	100.968	165.5727
124.099998	100.902	164.8914
125.000000	100.874	164.6230
126.500000	100.825	164.1887
128.000000	100.778	163.7790
131.500000	100.669	162.9267
132.000000	100.652	162.7988
134.000000	100.587	162.2886
136.000000	100.522	161.7608
138.000000	100.455	161.2336
140.000000	100.389	160.7491
143.000000	100.292	160.0496
145.000000	100.226	159.6384
147.500000	100.142	159.1216
150.000000	100.060	158.6146
152.500000	99.980	158.1169
155.000000	99.898	157.6320
157.500000	99.815	157.1937
160.000000	99.726	156.7616
162.500000	99.632	156.3444
165.000000	99.536	155.9364
167.500000	99.437	155.5528
170.000000	99.338	155.1893
172.500000	99.238	154.8317
175.000000	99.138	154.4972
177.500000	99.041	154.1802
180.000000	98.946	153.8550
182.500000	98.853	153.5259
185.000000	98.760	153.2250
187.500000	98.668	152.9328
190.000000	98.574	152.6382
192.500000	98.478	152.3604
195.000000	98.382	152.1043
197.500000	98.289	151.8685
200.000000	98.202	151.6517
203.000000	98.106	151.3970
206.000000	98.013	151.1460
209.000000	97.921	150.8922
212.000000	97.831	150.6469
214.000000	97.773	150.4948
218.000000	97.656	150.2232
220.000000	97.597	150.1032
224.000000	97.480	149.8812
227.000000	97.391	149.7203
230.000000	97.301	149.5612
233.000000	97.215	149.3994
236.000000	97.130	149.2478
240.000000	97.017	149.0832
243.000000	96.932	148.9847
247.000000	96.817	148.8619
250.000000	96.732	148.7700
254.000000	96.617	148.6731
258.000000	96.503	148.6086
262.000000	96.389	148.5394
265.000000	96.304	148.4980
269.000000	96.192	148.4508
272.000000	96.108	148.4255
276.000000	95.995	148.3989
280.000000	95.885	148.3860
285.000000	95.754	148.3798
290.000000	95.621	148.3397
295.000000	95.490	148.3260
300.000000	95.358	148.3459
304.000000	95.250	148.4094
307.000000	95.171	148.4561
311.000000	95.069	148.4969
315.000000	94.967	148.5486
320.000000	94.842	148.6681
325.000000	94.723	148.7772
330.000000	94.605	148.8791
335.000000	94.482	148.9987
340.000000	94.358	149.1719
345.000000	94.236	149.3356
350.000000	94.115	149.4926
355.000000	93.996	149.6771
360.000000	93.877	149.8904
365.000000	93.764	150.1105
370.000000	93.652	150.3304
375.000000	93.540	150.5559
382.000000	93.384	150.8915
387.000000	93.273	151.1481
395.000000	93.100	151.6064
400.000000	92.992	151.8999
406.000000	92.865	152.2565
412.000000	92.739	152.6196
418.000000	92.616	152.9916
425.000000	92.473	153.4500
431.000000	92.351	153.8636
437.000000	92.231	154.2932
444.000000	92.093	154.8037
450.000000	91.978	155.2456
455.000000	91.883	155.6198
462.000000	91.752	156.1586
468.000000	91.639	156.6320
475.000000	91.508	157.1896
482.000000	91.380	157.7664
487.000000	91.291	158.1974
494.000000	91.167	158.8122
500.000000	91.062	159.3397
508.000000	90.924	160.0585
515.000000	90.805	160.7048
522.000000	90.688	161.3623
530.000000	90.557	162.1231
538.000000	90.428	162.9037
545.000000	90.317	163.6080
552.000000	90.208	164.3207
560.000000	90.085	165.1442
570.000000	89.935	166.1983
580.000000	89.790	167.2729
590.000000	89.648	168.3681
600.000000	89.510	169.4828
608.000000	89.403	170.3944
615.000000	89.313	171.2034
622.000000	89.226	172.0201
630.000000	89.128	172.9637
640.000000	89.010	174.1574
650.000000	88.899	175.3598
660.000000	88.796	176.5557
670.000000	88.701	177.7157
680.000000	88.607	178.7938
690.000000	88.500	179.8256
700.000000	88.377	-179.0648
710.000000	88.252	-177.8138
720.000000	88.138	-176.4730
730.000000	88.039	-175.1171
740.000000	87.951	-173.7777
750.000000	87.870	-172.4585
762.000000	87.779	-170.9075
775.000000	87.686	-169.2785
788.000000	87.590	-167.6990
800.000000	87.493	-166.2624
812.000000	87.381	-164.7823
825.000000	87.253	-163.0387
838.000000	87.135	-161.1017
850.000000	87.050	-159.1898
862.000000	86.993	-157.2429
875.000000	86.956	-155.1547
885.000000	86.941	-153.5827
900.000000	86.931	-151.2934
912.000000	86.929	-149.5250
925.000000	86.934	-147.6562
938.000000	86.944	-145.8206
950.000000	86.958	-144.1513
962.000000	86.976	-142.5067
975.000000	87.000	-140.7590
988.000000	87.029	-139.0451
1000.000000	87.060	-137.4881
1015.000000	87.108	-135.5776
1030.000000	87.163	-133.7047
1044.000000	87.218	-131.9877
1060.000000	87.284	-130.0690
1075.000000	87.351	-128.3120
1090.000000	87.422	-126.5892
1106.000000	87.500	-124.7899
1120.000000	87.571	-123.2464
1138.000000	87.665	-121.3055
1150.000000	87.729	-120.0346
1172.000000	87.849	-117.7482
1180.000000	87.893	-116.9326
1206.000000	88.040	-114.3354
1220.000000	88.120	-112.9663
1241.000000	88.241	-110.9494
1250.000000	88.294	-110.0987
1265.000000	88.382	-108.6961
1280.000000	88.471	-107.3086
1315.000000	88.680	-104.1351
1320.000000	88.710	-103.6894
1340.000000	88.832	-101.9223
1360.000000	88.955	-100.1798
1380.000000	89.080	-98.4627
1400.000000	89.206	-96.7650
1430.000000	89.398	-94.2569
1450.000000	89.528	-92.6091
1475.000000	89.693	-90.5728
1500.000000	89.861	-88.5690
1525.000000	90.032	-86.5945
1550.000000	90.207	-84.6507
1575.000000	90.385	-82.7376
1600.000000	90.565	-80.8545
1625.000000	90.747	-78.9999
1650.000000	90.930	-77.1776
1675.000000	91.116	-75.3896
1700.000000	91.305	-73.6343
1725.000000	91.495	-71.9058
1750.000000	91.686	-70.2002
1775.000000	91.879	-68.5157
1800.000000	92.074	-66.8460
1825.000000	92.270	-65.1806
1850.000000	92.469	-63.5060
1875.000000	92.676	-61.8111
1900.000000	92.895	-60.1001
1925.000000	93.131	-58.4071
1950.000000	93.387	-56.7946
1975.000000	93.655	-55.3207
2000.000000	93.925	-54.0039
2030.000000	94.239	-52.5879
2060.000000	94.541	-51.2709
2090.000000	94.835	-49.9970
2120.000000	95.125	-48.7484
2140.000000	95.318	-47.9300
2180.000000	95.706	-46.3380
2200.000000	95.903	-45.5707
2240.000000	96.301	-44.1061
2270.000000	96.604	-43.0755
2300.000000	96.909	-42.1110
2330.000000	97.219	-41.2187
2360.000000	97.531	-40.4029
2400.000000	97.951	-39.4440
2430.000000	98.269	-38.8303
2470.000000	98.695	-38.1657
2500.000000	99.014	-37.7923
2540.000000	99.438	-37.4707
2580.000000	99.854	-37.3536
2620.000000	100.259	-37.4416
2650.000000	100.553	-37.6419
2690.000000	100.927	-38.0845
2720.000000	101.193	-38.5436
2760.000000	101.523	-39.3130
2800.000000	101.821	-40.2397
2850.000000	102.141	-41.5695
2900.000000	102.397	-43.0151
2950.000000	102.586	-44.4697
3000.000000	102.712	-45.8047
3040.000000	102.777	-46.7052
3070.000000	102.813	-47.2623
3110.000000	102.856	-47.8711
3150.000000	102.899	-48.4102
3200.000000	102.944	-49.1439
3250.000000	102.958	-50.0040
3300.000000	102.922	-50.8718
3350.000000	102.837	-51.5817
3400.000000	102.716	-52.0368
3450.000000	102.577	-52.2135
3500.000000	102.430	-52.1254
3550.000000	102.282	-51.8009
3600.000000	102.140	-51.2740
3650.000000	102.008	-50.5789
3700.000000	101.888	-49.7453
3750.000000	101.782	-48.7990
3820.000000	101.658	-47.3371
3870.000000	101.588	-46.2358
3950.000000	101.505	-44.4601
4000.000000	101.466	-43.3911
4060.000000	101.422	-42.1847
4120.000000	101.366	-41.0429
4180.000000	101.282	-39.8605
4250.000000	101.147	-38.1666
4310.000000	101.031	-36.2438
4370.000000	100.960	-33.8920
4440.000000	100.977	-30.8919
4500.000000	101.080	-28.3983
4550.000000	101.213	-26.5105
4620.000000	101.447	-24.2471
4680.000000	101.674	-22.6767
4750.000000	101.950	-21.2589
4820.000000	102.224	-20.2512
4870.000000	102.413	-19.7559
4940.000000	102.666	-19.3408
5000.000000	102.868	-19.2283
5080.000000	103.113	-19.4398
5150.000000	103.296	-19.9899
5220.000000	103.435	-20.8785
5300.000000	103.520	-22.2288
5380.000000	103.511	-23.7815
5450.000000	103.422	-25.1633
5520.000000	103.261	-26.4433
5600.000000	102.995	-27.6454
5700.000000	102.564	-28.5750
5800.000000	102.058	-28.7355
5900.000000	101.519	-28.1052
6000.000000	100.978	-26.7522
6080.000000	100.559	-25.2259
6150.000000	100.209	-23.6184
6220.000000	99.874	-21.7888
6300.000000	99.511	-19.4481
6400.000000	99.083	-16.1407
6500.000000	98.660	-12.2179
6600.000000	98.259	-6.8908
6700.000000	98.204	0.5841
6800.000000	98.865	6.8167
6900.000000	99.463	8.0117
7000.000000	99.575	8.3824
7100.000000	99.600	10.2847
7200.000000	99.745	12.8346
7300.000000	100.022	15.2691
7400.000000	100.412	17.2103
7500.000000	100.897	18.3854
7620.000000	101.566	18.3743
7750.000000	102.307	16.0282
7880.000000	102.885	10.8173
8000.000000	103.070	3.7497
8120.000000	102.775	-4.2726
8250.000000	101.913	-12.0930
8380.000000	100.634	-17.4804
8500.000000	99.266	-19.9215
8620.000000	97.865	-20.2329
8750.000000	96.410	-18.7277
8850.000000	95.369	-16.6109
9000.000000	93.952	-12.3334
9120.000000	92.945	-8.2329
9250.000000	91.975	-3.3242
9380.000000	91.124	1.9051
9500.000000	90.437	6.8927
9620.000000	89.833	11.9503
9750.000000	89.262	17.4659
9880.000000	88.771	23.0060
10000.000000	88.392	28.1217
10150.000000	88.023	34.4698
10300.000000	87.764	40.6986
10440.000000	87.618	46.3384
10600.000000	87.563	52.5028
10750.000000	87.622	57.9137
10900.000000	87.791	62.8393
11060.000000	88.093	67.3826
11200.000000	88.461	70.5592
11380.000000	89.053	73.1625
11500.000000	89.495	73.7057
11720.000000	90.267	71.6013
11800.000000	90.485	69.7593
12060.000000	90.682	60.5060
12200.000000	90.368	54.5860
12410.000000	89.360	46.7855
12500.000000	88.779	44.2714
12650.000000	87.700	41.3946
12800.000000	86.566	40.0667
13150.000000	84.045	41.4465
13200.000000	83.719	41.9952
13400.000000	82.521	44.7097
13600.000000	81.498	47.9420
13800.000000	80.651	51.3770
14000.000000	79.973	54.7813
14300.000000	79.271	59.5006
14500.000000	79.025	62.1870
14750.000000	78.988	64.6810
15000.000000	79.277	65.8371
15250.000000	79.933	65.0831
15500.000000	80.990	61.4159
15750.000000	82.370	53.0285
16000.000000	83.679	37.4324
16250.000000	84.221	14.0295
16500.000000	83.493	-12.1900
16750.000000	81.624	-34.1033
17000.000000	79.226	-49.5469
17250.000000	76.897	-60.4904
17500.000000	74.938	-69.3384
17750.000000	73.412	-77.8174
18000.000000	72.283	-87.0084
18250.000000	71.529	-97.8338
18500.000000	71.077	-111.7452
18750.000000	70.687	-129.2174
19000.000000	70.281	-149.9076
19250.000000	69.859	-174.3774
19500.000000	69.311	157.2885
19750.000000	68.587	128.6136
