* Measurement data measured by REW V5.20.13
* Source: Headset (USB-C to 3.5mm Headphone Jack Adapter), MICROPHONE (Master Volume), L, volume: 0.250
* Format: 256k Log Swept Sine, 1 sweep at -12.0 dBFS with no timing reference
* Dated: 09 30, 24 4:30:37 PM
* REW Settings:
*  C-weighting compensation: Off
*  Target level: 75.0 dB
* Note: ; CP100
* Measurement: JVC HA-FX700 CP100 8K L
* Smoothing: 1/24 octave
* Frequency Step: 1/48 octave
* Start Frequency: 20.300 Hz
*
* Freq(Hz)	SPL(dB)	Phase(degrees)
20.299999	99.193	-85.1880
20.600000	99.253	-85.8686
20.900000	99.374	-87.0877
21.200001	99.485	-88.2587
21.400000	99.554	-89.0197
21.799999	99.685	-90.5538
22.000000	99.747	-91.3347
22.400000	99.865	-92.8761
22.700001	99.948	-93.9778
23.000000	100.031	-95.0168
23.299999	100.115	-95.9972
23.600000	100.203	-96.9366
24.000000	100.323	-98.1625
24.299999	100.412	-99.0850
24.700001	100.523	-100.3240
25.000000	100.598	-101.2451
25.400000	100.687	-102.4348
25.799999	100.770	-103.5648
26.200001	100.851	-104.6504
26.500000	100.913	-105.4573
26.900000	100.995	-106.5460
27.200001	101.054	-107.3755
27.600000	101.128	-108.4855
28.000000	101.196	-109.5727
28.500000	101.278	-110.8694
29.000000	101.360	-112.1002
29.500000	101.445	-113.2962
30.000000	101.527	-114.4884
30.400000	101.586	-115.4473
30.700001	101.627	-116.1669
31.100000	101.675	-117.1172
31.500000	101.717	-118.0456
32.000000	101.770	-119.1656
32.500000	101.827	-120.2533
33.000000	101.889	-121.3375
33.500000	101.951	-122.4275
34.000000	102.006	-123.4955
34.500000	102.052	-124.5035
35.000000	102.094	-125.4460
35.500000	102.137	-126.3560
36.000000	102.183	-127.2713
36.500000	102.229	-128.2037
37.000000	102.275	-129.1416
37.500000	102.317	-130.0691
38.200001	102.369	-131.3255
38.700001	102.398	-132.1808
39.500000	102.442	-133.4947
40.000000	102.470	-134.3162
40.599998	102.504	-135.3160
41.200001	102.534	-136.2934
41.799999	102.564	-137.2114
42.500000	102.600	-138.2304
43.099998	102.629	-139.1095
43.700001	102.653	-139.9965
44.400002	102.677	-140.9980
45.000000	102.698	-141.8122
45.500000	102.718	-142.4742
46.200001	102.745	-143.3942
46.799999	102.763	-144.1727
47.500000	102.779	-145.0577
48.200001	102.794	-145.9182
48.700001	102.804	-146.5202
49.400002	102.819	-147.3517
50.000000	102.833	-148.0670
50.799999	102.850	-149.0381
51.500000	102.861	-149.8899
52.200001	102.868	-150.7152
53.000000	102.877	-151.6001
53.799999	102.888	-152.4285
54.500000	102.899	-153.1401
55.200001	102.908	-153.8568
56.000000	102.913	-154.6685
57.000000	102.917	-155.6731
58.000000	102.922	-156.6852
59.000000	102.924	-157.6588
60.000000	102.924	-158.5696
60.799999	102.922	-159.2557
61.500000	102.922	-159.8407
62.200001	102.923	-160.4405
63.000000	102.924	-161.1530
64.000000	102.920	-162.0344
65.000000	102.915	-162.8680
66.000000	102.907	-163.6659
67.000000	102.896	-164.4447
68.000000	102.882	-165.2111
69.000000	102.870	-165.9686
70.000000	102.863	-166.7411
71.000000	102.854	-167.5093
72.000000	102.843	-168.2370
73.000000	102.832	-168.9257
74.000000	102.820	-169.5928
75.000000	102.808	-170.2666
76.199997	102.786	-171.0644
77.500000	102.760	-171.8629
78.800003	102.747	-172.6276
80.000000	102.732	-173.3557
81.199997	102.705	-174.1147
82.500000	102.676	-174.9644
83.800003	102.645	-175.7072
85.000000	102.606	-176.4180
86.199997	102.556	-177.2630
87.500000	102.520	-177.9965
88.500000	102.515	-178.4193
90.000000	102.497	-179.0542
91.199997	102.475	-179.5826
92.500000	102.449	179.7974
93.800003	102.427	179.1520
95.000000	102.412	178.5674
96.199997	102.387	178.0042
97.500000	102.349	177.4017
98.800003	102.319	176.8061
100.000000	102.292	176.2662
101.500000	102.252	175.6028
103.000000	102.218	174.9952
104.400002	102.188	174.4666
106.000000	102.147	173.8174
107.500000	102.108	173.2031
109.000000	102.071	172.6316
110.599998	102.035	171.9721
112.000000	101.996	171.3064
113.800003	101.927	170.5426
115.000000	101.886	170.1572
117.199997	101.835	169.4495
118.000000	101.815	169.1630
120.599998	101.746	168.2946
122.000000	101.704	167.8457
124.099998	101.642	167.1504
125.000000	101.616	166.8549
126.500000	101.574	166.3768
128.000000	101.532	165.9019
131.500000	101.436	164.8298
132.000000	101.423	164.6837
134.000000	101.370	164.1385
136.000000	101.307	163.5956
138.000000	101.248	163.0031
140.000000	101.204	162.4504
143.000000	101.127	161.7297
145.000000	101.076	161.2689
147.500000	101.007	160.6788
150.000000	100.932	160.0732
152.500000	100.859	159.4778
155.000000	100.791	158.9479
157.500000	100.729	158.4359
160.000000	100.656	157.8699
162.500000	100.568	157.3579
165.000000	100.481	156.8726
167.500000	100.396	156.3923
170.000000	100.312	155.9192
172.500000	100.226	155.4388
175.000000	100.139	154.9750
177.500000	100.050	154.5237
180.000000	99.961	154.1080
182.500000	99.873	153.7502
185.000000	99.784	153.4098
187.500000	99.696	153.0781
190.000000	99.605	152.7540
192.500000	99.497	152.2721
195.000000	99.413	151.5372
197.500000	99.350	150.9471
200.000000	99.265	150.7620
203.000000	99.173	150.7930
206.000000	99.110	150.5822
209.000000	99.029	150.2303
212.000000	98.945	149.9084
214.000000	98.890	149.6904
218.000000	98.781	149.2690
220.000000	98.728	149.0800
224.000000	98.628	148.7459
227.000000	98.551	148.5148
230.000000	98.471	148.2527
233.000000	98.395	147.9833
236.000000	98.320	147.7366
240.000000	98.213	147.4393
243.000000	98.141	147.2357
247.000000	98.058	146.9398
250.000000	97.991	146.6942
254.000000	97.883	146.4136
258.000000	97.772	146.1375
262.000000	97.666	145.8647
265.000000	97.588	145.6827
269.000000	97.481	145.4600
272.000000	97.401	145.3234
276.000000	97.301	145.1672
280.000000	97.199	144.9579
285.000000	97.070	144.6686
290.000000	96.939	144.4655
295.000000	96.813	144.3191
300.000000	96.688	144.1673
304.000000	96.588	144.0500
307.000000	96.513	143.9721
311.000000	96.414	143.8754
315.000000	96.317	143.7761
320.000000	96.199	143.6869
325.000000	96.082	143.6320
330.000000	95.966	143.5978
335.000000	95.853	143.5594
340.000000	95.740	143.5159
345.000000	95.624	143.5037
350.000000	95.510	143.5427
355.000000	95.395	143.5537
360.000000	95.280	143.5339
365.000000	95.169	143.5366
370.000000	95.064	143.5664
375.000000	94.958	143.6116
382.000000	94.810	143.6961
387.000000	94.705	143.7805
395.000000	94.531	143.9404
400.000000	94.423	144.0558
406.000000	94.299	144.2065
412.000000	94.178	144.3450
418.000000	94.062	144.4962
425.000000	93.928	144.6944
431.000000	93.812	144.8914
437.000000	93.694	145.1031
444.000000	93.560	145.3518
450.000000	93.449	145.5874
455.000000	93.357	145.7953
462.000000	93.226	146.0867
468.000000	93.116	146.3394
475.000000	92.989	146.6526
482.000000	92.862	146.9911
487.000000	92.774	147.2439
494.000000	92.653	147.5988
500.000000	92.551	147.8967
508.000000	92.421	148.3207
515.000000	92.305	148.7351
522.000000	92.185	149.1631
530.000000	92.051	149.6476
538.000000	91.922	150.1470
545.000000	91.810	150.5985
552.000000	91.701	151.0611
560.000000	91.580	151.6055
570.000000	91.432	152.3106
580.000000	91.287	153.0392
590.000000	91.146	153.8033
600.000000	91.010	154.5841
608.000000	90.905	155.1861
615.000000	90.816	155.7086
622.000000	90.726	156.2679
630.000000	90.630	156.9355
640.000000	90.524	157.7375
650.000000	90.416	158.4736
660.000000	90.302	159.1654
670.000000	90.177	159.8677
680.000000	90.041	160.6512
690.000000	89.904	161.4890
700.000000	89.774	162.3493
710.000000	89.652	163.2469
720.000000	89.536	164.1669
730.000000	89.423	165.0967
740.000000	89.311	166.0360
750.000000	89.196	167.0074
762.000000	89.056	168.2486
775.000000	88.913	169.7096
788.000000	88.793	171.2943
800.000000	88.709	172.8121
812.000000	88.640	174.3225
825.000000	88.575	175.9008
838.000000	88.520	177.4124
850.000000	88.477	178.7812
862.000000	88.435	-179.8666
875.000000	88.392	-178.4180
885.000000	88.364	-177.3165
900.000000	88.328	-175.6874
912.000000	88.304	-174.3907
925.000000	88.285	-172.9869
938.000000	88.270	-171.5968
950.000000	88.260	-170.3250
962.000000	88.254	-169.0663
975.000000	88.255	-167.7271
988.000000	88.262	-166.4113
1000.000000	88.274	-165.2093
1015.000000	88.295	-163.7238
1030.000000	88.323	-162.2745
1044.000000	88.354	-160.9536
1060.000000	88.395	-159.4663
1075.000000	88.435	-158.0980
1090.000000	88.479	-156.7656
1106.000000	88.532	-155.3695
1120.000000	88.580	-154.1703
1138.000000	88.646	-152.6682
1150.000000	88.691	-151.6749
1172.000000	88.780	-149.8874
1180.000000	88.813	-149.2569
1206.000000	88.922	-147.2556
1220.000000	88.982	-146.1975
1241.000000	89.074	-144.6343
1250.000000	89.114	-143.9712
1265.000000	89.184	-142.8743
1280.000000	89.254	-141.7928
1315.000000	89.422	-139.3294
1320.000000	89.447	-138.9844
1340.000000	89.546	-137.6131
1360.000000	89.647	-136.2525
1380.000000	89.752	-134.9106
1400.000000	89.860	-133.5883
1430.000000	90.026	-131.6372
1450.000000	90.142	-130.3663
1475.000000	90.289	-128.8095
1500.000000	90.440	-127.2755
1525.000000	90.593	-125.7613
1550.000000	90.751	-124.2740
1575.000000	90.915	-122.8149
1600.000000	91.082	-121.3850
1625.000000	91.251	-119.9751
1650.000000	91.425	-118.5912
1675.000000	91.602	-117.2422
1700.000000	91.784	-115.9236
1725.000000	91.969	-114.6346
1750.000000	92.157	-113.3709
1775.000000	92.348	-112.1345
1800.000000	92.541	-110.9218
1825.000000	92.737	-109.7215
1850.000000	92.936	-108.5239
1875.000000	93.138	-107.3199
1900.000000	93.349	-106.0944
1925.000000	93.573	-104.8437
1950.000000	93.817	-103.5976
1975.000000	94.084	-102.4178
2000.000000	94.369	-101.3790
2030.000000	94.720	-100.3747
2060.000000	95.062	-99.5921
2090.000000	95.392	-98.9357
2120.000000	95.712	-98.3435
2140.000000	95.922	-97.9717
2180.000000	96.342	-97.2802
2200.000000	96.553	-96.9649
2240.000000	96.980	-96.4077
2270.000000	97.303	-96.0656
2300.000000	97.630	-95.7971
2330.000000	97.960	-95.6073
2360.000000	98.292	-95.5016
2400.000000	98.738	-95.5023
2430.000000	99.075	-95.6157
2470.000000	99.526	-95.9297
2500.000000	99.864	-96.2995
2540.000000	100.311	-96.9889
2580.000000	100.750	-97.9083
2620.000000	101.174	-99.0482
2650.000000	101.480	-100.0417
2690.000000	101.867	-101.5442
2720.000000	102.141	-102.7982
2760.000000	102.479	-104.6242
2800.000000	102.782	-106.6014
2850.000000	103.107	-109.2322
2900.000000	103.366	-111.9607
2950.000000	103.557	-114.6822
3000.000000	103.686	-117.2793
3040.000000	103.752	-119.1964
3070.000000	103.788	-120.5181
3110.000000	103.826	-122.1345
3150.000000	103.861	-123.6443
3200.000000	103.899	-125.5208
3250.000000	103.916	-127.4777
3300.000000	103.895	-129.4627
3350.000000	103.830	-131.3398
3400.000000	103.731	-133.0014
3450.000000	103.612	-134.4102
3500.000000	103.484	-135.5759
3550.000000	103.355	-136.5263
3600.000000	103.231	-137.2949
3650.000000	103.115	-137.9135
3700.000000	103.009	-138.4100
3750.000000	102.915	-138.8097
3820.000000	102.801	-139.2541
3870.000000	102.733	-139.5195
3950.000000	102.645	-139.9216
4000.000000	102.598	-140.1989
4060.000000	102.541	-140.5814
4120.000000	102.468	-140.9869
4180.000000	102.367	-141.2962
4250.000000	102.221	-141.2887
4310.000000	102.107	-140.8196
4370.000000	102.046	-139.9818
4440.000000	102.071	-138.8375
4500.000000	102.171	-137.9801
4550.000000	102.295	-137.4632
4620.000000	102.508	-137.1028
4680.000000	102.710	-137.1358
4750.000000	102.952	-137.5465
4820.000000	103.191	-138.3117
4870.000000	103.357	-139.0509
4940.000000	103.581	-140.3398
5000.000000	103.764	-141.6949
5080.000000	103.983	-143.9118
5150.000000	104.136	-146.2531
5220.000000	104.234	-148.9218
5300.000000	104.260	-152.2425
5380.000000	104.186	-155.6591
5450.000000	104.038	-158.5632
5520.000000	103.822	-161.2601
5600.000000	103.506	-163.9745
5700.000000	103.040	-166.7056
5800.000000	102.531	-168.6688
5900.000000	102.013	-169.9145
6000.000000	101.511	-170.5288
6080.000000	101.133	-170.6338
6150.000000	100.825	-170.4909
6220.000000	100.541	-170.1649
6300.000000	100.250	-169.6043
6400.000000	99.941	-168.6689
6500.000000	99.693	-167.5225
6600.000000	99.506	-166.2195
6700.000000	99.384	-164.8193
6800.000000	99.329	-163.3778
6900.000000	99.343	-161.9301
7000.000000	99.440	-160.5050
7100.000000	99.638	-159.2709
7200.000000	99.926	-158.4539
7300.000000	100.290	-158.1163
7400.000000	100.735	-158.3628
7500.000000	101.256	-159.3910
7620.000000	101.958	-162.0266
7750.000000	102.726	-167.1621
7880.000000	103.337	-175.0980
8000.000000	103.566	175.3323
8120.000000	103.330	164.7327
8250.000000	102.538	153.9579
8380.000000	101.326	145.4576
8500.000000	100.008	140.0652
8620.000000	98.644	136.7839
8750.000000	97.217	135.0826
8850.000000	96.192	134.7485
9000.000000	94.792	135.3776
9120.000000	93.792	136.5831
9250.000000	92.826	138.3835
9380.000000	91.976	140.5427
9500.000000	91.288	142.7402
9620.000000	90.687	145.0471
9750.000000	90.127	147.5991
9880.000000	89.654	150.1583
10000.000000	89.295	152.5022
10150.000000	88.953	155.3644
10300.000000	88.725	158.0878
10440.000000	88.610	160.4396
10600.000000	88.594	162.8068
10750.000000	88.695	164.6061
10900.000000	88.909	165.8646
11060.000000	89.262	166.4132
11200.000000	89.671	166.0097
11380.000000	90.306	163.8809
11500.000000	90.766	161.1864
11720.000000	91.528	153.0031
11800.000000	91.724	148.9429
12060.000000	91.793	132.8187
12200.000000	91.396	123.5610
12410.000000	90.289	111.1597
12500.000000	89.682	106.7399
12650.000000	88.582	100.6764
12800.000000	87.446	96.0990
13150.000000	84.949	89.6641
13200.000000	84.626	89.0837
13400.000000	83.437	87.2921
13600.000000	82.420	86.0647
13800.000000	81.574	85.0912
14000.000000	80.896	84.1530
14300.000000	80.188	82.5206
14500.000000	79.934	81.1007
14750.000000	79.886	78.6608
15000.000000	80.163	75.1336
15250.000000	80.815	70.0392
15500.000000	81.911	62.5115
15750.000000	83.440	50.8728
16000.000000	85.093	32.4258
16250.000000	86.182	5.3132
16500.000000	86.089	-27.1920
16750.000000	84.789	-58.0065
17000.000000	82.780	-83.7073
17250.000000	80.572	-105.1808
17500.000000	78.439	-123.9683
17750.000000	76.515	-141.2043
18000.000000	74.899	-158.0035
18250.000000	73.633	-175.5513
18500.000000	72.687	165.0770
18750.000000	71.991	142.9699
19000.000000	71.444	117.3192
19250.000000	70.903	87.6718
19500.000000	70.251	54.5780
19750.000000	69.503	21.9260
