* Measurement data measured by REW V5.20.13
* Source: Headset (USB-C to 3.5mm Headphone Jack Adapter), MICROPHONE (Master Volume), L, volume: 0.250
* Format: 256k Log Swept Sine, 1 sweep at -12.0 dBFS with no timing reference
* Dated: 09 29, 24 9:20:44 PM
* REW Settings:
*  C-weighting compensation: Off
*  Target level: 75.0 dB
* Note: ; CP100
* Measurement: Massdrop Plus L CP100
* Smoothing: 1/24 octave
* Frequency Step: 1/48 octave
* Start Frequency: 20.300 Hz
*
* Freq(Hz)	SPL(dB)	Phase(degrees)
20.299999	94.025	60.4576
20.600000	94.063	59.9819
20.900000	94.136	59.1349
21.200001	94.201	58.3377
21.400000	94.239	57.8347
21.799999	94.311	56.8567
22.000000	94.347	56.3717
22.400000	94.417	55.4210
22.700001	94.470	54.7225
23.000000	94.524	54.0233
23.299999	94.577	53.3161
23.600000	94.628	52.6005
24.000000	94.691	51.6431
24.299999	94.734	50.9378
24.700001	94.788	50.0335
25.000000	94.828	49.3872
25.400000	94.881	48.5613
25.799999	94.936	47.7575
26.200001	94.990	46.9602
26.500000	95.028	46.3648
26.900000	95.075	45.5786
27.200001	95.109	44.9983
27.600000	95.152	44.2372
28.000000	95.195	43.4859
28.500000	95.248	42.5540
29.000000	95.298	41.6353
29.500000	95.345	40.7432
30.000000	95.389	39.8825
30.400000	95.424	39.2102
30.700001	95.449	38.7114
31.100000	95.481	38.0511
31.500000	95.513	37.3981
32.000000	95.550	36.5975
32.500000	95.587	35.8172
33.000000	95.622	35.0541
33.500000	95.656	34.3040
34.000000	95.688	33.5677
34.500000	95.718	32.8493
35.000000	95.747	32.1507
35.500000	95.775	31.4690
36.000000	95.801	30.7975
36.500000	95.826	30.1310
37.000000	95.847	29.4682
37.500000	95.867	28.8134
38.200001	95.895	27.9232
38.700001	95.916	27.3090
39.500000	95.952	26.3468
40.000000	95.970	25.7525
40.599998	95.984	25.0592
41.200001	95.992	24.4038
41.799999	96.003	23.7734
42.500000	96.025	23.0219
43.099998	96.046	22.3480
43.700001	96.065	21.6778
44.400002	96.083	20.9396
45.000000	96.097	20.3359
45.500000	96.108	19.8333
46.200001	96.122	19.1287
46.799999	96.133	18.5465
47.500000	96.143	17.9122
48.200001	96.152	17.3134
48.700001	96.158	16.8883
49.400002	96.167	16.2619
50.000000	96.174	15.6796
50.799999	96.176	14.8881
51.500000	96.173	14.2661
52.200001	96.172	13.7267
53.000000	96.182	13.1377
53.799999	96.200	12.5147
54.500000	96.217	11.9537
55.200001	96.227	11.4162
56.000000	96.228	10.8414
57.000000	96.213	10.1328
58.000000	96.200	9.4292
59.000000	96.208	8.7095
60.000000	96.216	7.9615
60.799999	96.211	7.4124
61.500000	96.204	6.9681
62.200001	96.199	6.5248
63.000000	96.198	6.0012
64.000000	96.202	5.3043
65.000000	96.200	4.5745
66.000000	96.189	3.9084
67.000000	96.183	3.3151
68.000000	96.178	2.7382
69.000000	96.169	2.2025
70.000000	96.159	1.6723
71.000000	96.148	1.1014
72.000000	96.136	0.5125
73.000000	96.124	-0.0832
74.000000	96.112	-0.6256
75.000000	96.104	-1.0949
76.199997	96.088	-1.6089
77.500000	96.045	-2.2449
78.800003	95.992	-2.8636
80.000000	96.005	-3.3737
81.199997	96.034	-3.9597
82.500000	96.022	-4.4821
83.800003	96.007	-5.0378
85.000000	95.996	-5.5717
86.199997	95.986	-5.9755
87.500000	95.982	-6.5542
88.500000	95.982	-6.9605
90.000000	95.995	-7.3411
91.199997	95.966	-7.9180
92.500000	95.903	-8.7224
93.800003	95.872	-9.4066
95.000000	95.860	-9.9250
96.199997	95.844	-10.4081
97.500000	95.818	-10.9030
98.800003	95.794	-11.3830
100.000000	95.779	-11.8397
101.500000	95.760	-12.4060
103.000000	95.734	-12.9700
104.400002	95.708	-13.4857
106.000000	95.681	-14.0499
107.500000	95.655	-14.5647
109.000000	95.630	-15.0739
110.599998	95.602	-15.6141
112.000000	95.578	-16.0638
113.800003	95.545	-16.6230
115.000000	95.523	-16.9971
117.199997	95.487	-17.6841
118.000000	95.474	-17.9288
120.599998	95.423	-18.6980
122.000000	95.393	-19.0967
124.099998	95.357	-19.7036
125.000000	95.343	-19.9597
126.500000	95.318	-20.3760
128.000000	95.293	-20.7794
131.500000	95.236	-21.7287
132.000000	95.228	-21.8616
134.000000	95.197	-22.3816
136.000000	95.164	-22.8987
138.000000	95.132	-23.4086
140.000000	95.100	-23.9022
143.000000	95.051	-24.6258
145.000000	95.018	-25.1051
147.500000	94.977	-25.6750
150.000000	94.937	-26.2419
152.500000	94.897	-26.8063
155.000000	94.856	-27.3583
157.500000	94.812	-27.8911
160.000000	94.765	-28.4084
162.500000	94.710	-28.9200
165.000000	94.652	-29.4289
167.500000	94.595	-29.9281
170.000000	94.537	-30.4163
172.500000	94.478	-30.8927
175.000000	94.420	-31.3608
177.500000	94.363	-31.8187
180.000000	94.305	-32.2769
182.500000	94.246	-32.7334
185.000000	94.187	-33.1732
187.500000	94.129	-33.5948
190.000000	94.072	-34.0128
192.500000	94.016	-34.4283
195.000000	93.960	-34.8378
197.500000	93.905	-35.2419
200.000000	93.855	-35.6363
203.000000	93.802	-36.0984
206.000000	93.753	-36.5493
209.000000	93.705	-36.9881
212.000000	93.658	-37.4213
214.000000	93.626	-37.7087
218.000000	93.562	-38.2670
220.000000	93.530	-38.5367
224.000000	93.469	-39.0684
227.000000	93.423	-39.4623
230.000000	93.377	-39.8511
233.000000	93.331	-40.2327
236.000000	93.285	-40.6036
240.000000	93.224	-41.0853
243.000000	93.178	-41.4382
247.000000	93.117	-41.8999
250.000000	93.070	-42.2387
254.000000	93.005	-42.6814
258.000000	92.939	-43.1108
262.000000	92.874	-43.5268
265.000000	92.825	-43.8312
269.000000	92.761	-44.2275
272.000000	92.713	-44.5185
276.000000	92.650	-44.8965
280.000000	92.588	-45.2618
285.000000	92.511	-45.7080
290.000000	92.435	-46.1426
295.000000	92.359	-46.5584
300.000000	92.285	-46.9595
304.000000	92.226	-47.2694
307.000000	92.183	-47.4969
311.000000	92.126	-47.7952
315.000000	92.071	-48.0871
320.000000	92.004	-48.4445
325.000000	91.938	-48.7971
330.000000	91.872	-49.1370
335.000000	91.807	-49.4634
340.000000	91.742	-49.7801
345.000000	91.679	-50.0844
350.000000	91.616	-50.3769
355.000000	91.555	-50.6553
360.000000	91.494	-50.9235
365.000000	91.435	-51.1825
370.000000	91.376	-51.4318
375.000000	91.318	-51.6726
382.000000	91.239	-51.9961
387.000000	91.184	-52.2166
395.000000	91.098	-52.5555
400.000000	91.046	-52.7589
406.000000	90.983	-52.9901
412.000000	90.922	-53.2041
418.000000	90.862	-53.4034
425.000000	90.795	-53.6283
431.000000	90.739	-53.8155
437.000000	90.684	-53.9949
444.000000	90.620	-54.1920
450.000000	90.566	-54.3476
455.000000	90.522	-54.4688
462.000000	90.461	-54.6271
468.000000	90.410	-54.7501
475.000000	90.353	-54.8800
482.000000	90.296	-54.9955
487.000000	90.257	-55.0696
494.000000	90.204	-55.1623
500.000000	90.160	-55.2328
508.000000	90.103	-55.3153
515.000000	90.054	-55.3761
522.000000	90.008	-55.4224
530.000000	89.957	-55.4558
538.000000	89.907	-55.4761
545.000000	89.866	-55.4850
552.000000	89.826	-55.4833
560.000000	89.782	-55.4662
570.000000	89.730	-55.4268
580.000000	89.681	-55.3671
590.000000	89.636	-55.2869
600.000000	89.595	-55.1885
608.000000	89.564	-55.0922
615.000000	89.538	-54.9975
622.000000	89.514	-54.8946
630.000000	89.489	-54.7651
640.000000	89.460	-54.5866
650.000000	89.433	-54.3925
660.000000	89.411	-54.1876
670.000000	89.392	-53.9683
680.000000	89.376	-53.7334
690.000000	89.363	-53.4819
700.000000	89.353	-53.2178
710.000000	89.348	-52.9423
720.000000	89.346	-52.6546
730.000000	89.348	-52.3556
740.000000	89.354	-52.0444
750.000000	89.363	-51.7236
762.000000	89.380	-51.3237
775.000000	89.404	-50.8759
788.000000	89.434	-50.4216
800.000000	89.467	-49.9967
812.000000	89.505	-49.5628
825.000000	89.552	-49.0873
838.000000	89.604	-48.6124
850.000000	89.659	-48.1739
862.000000	89.719	-47.7363
875.000000	89.791	-47.2662
885.000000	89.850	-46.9106
900.000000	89.946	-46.3923
912.000000	90.028	-45.9928
925.000000	90.122	-45.5754
938.000000	90.221	-45.1753
950.000000	90.316	-44.8241
962.000000	90.415	-44.4915
975.000000	90.526	-44.1534
988.000000	90.641	-43.8366
1000.000000	90.751	-43.5657
1015.000000	90.894	-43.2634
1030.000000	91.042	-43.0000
1044.000000	91.182	-42.7828
1060.000000	91.345	-42.5728
1075.000000	91.498	-42.4151
1090.000000	91.651	-42.2930
1106.000000	91.815	-42.1945
1120.000000	91.957	-42.1353
1138.000000	92.140	-42.0949
1150.000000	92.260	-42.0893
1172.000000	92.480	-42.1169
1180.000000	92.558	-42.1377
1206.000000	92.812	-42.2378
1220.000000	92.946	-42.3092
1241.000000	93.144	-42.4384
1250.000000	93.228	-42.5003
1265.000000	93.365	-42.6112
1280.000000	93.501	-42.7333
1315.000000	93.814	-43.0489
1320.000000	93.858	-43.0970
1340.000000	94.032	-43.2973
1360.000000	94.204	-43.5084
1380.000000	94.375	-43.7292
1400.000000	94.543	-43.9642
1430.000000	94.791	-44.3426
1450.000000	94.954	-44.6111
1475.000000	95.154	-44.9600
1500.000000	95.351	-45.3212
1525.000000	95.545	-45.6941
1550.000000	95.738	-46.0863
1575.000000	95.926	-46.5020
1600.000000	96.109	-46.9322
1625.000000	96.288	-47.3735
1650.000000	96.464	-47.8352
1675.000000	96.638	-48.3284
1700.000000	96.807	-48.8602
1725.000000	96.967	-49.4148
1750.000000	97.122	-49.9772
1775.000000	97.271	-50.5553
1800.000000	97.413	-51.1519
1825.000000	97.549	-51.7482
1850.000000	97.683	-52.3489
1875.000000	97.812	-52.9865
1900.000000	97.932	-53.6531
1925.000000	98.043	-54.3277
1950.000000	98.146	-55.0017
1975.000000	98.240	-55.6703
2000.000000	98.327	-56.3301
2030.000000	98.421	-57.1147
2060.000000	98.504	-57.8983
2090.000000	98.572	-58.6674
2120.000000	98.627	-59.3764
2140.000000	98.660	-59.7967
2180.000000	98.730	-60.6259
2200.000000	98.758	-61.0577
2240.000000	98.799	-61.8207
2270.000000	98.824	-62.3224
2300.000000	98.847	-62.7673
2330.000000	98.873	-63.1629
2360.000000	98.904	-63.5716
2400.000000	98.943	-64.2144
2430.000000	98.957	-64.7460
2470.000000	98.951	-65.4250
2500.000000	98.932	-65.8602
2540.000000	98.897	-66.3079
2580.000000	98.859	-66.6128
2620.000000	98.824	-66.8065
2650.000000	98.802	-66.8999
2690.000000	98.776	-66.9784
2720.000000	98.760	-67.0118
2760.000000	98.743	-67.0353
2800.000000	98.729	-67.0491
2850.000000	98.715	-67.0693
2900.000000	98.698	-67.1040
2950.000000	98.676	-67.1275
3000.000000	98.652	-67.1283
3040.000000	98.631	-67.1232
3070.000000	98.613	-67.1158
3110.000000	98.586	-67.0976
3150.000000	98.552	-67.0681
3200.000000	98.497	-67.0152
3250.000000	98.434	-66.9438
3300.000000	98.364	-66.8479
3350.000000	98.288	-66.7153
3400.000000	98.208	-66.5360
3450.000000	98.128	-66.3213
3500.000000	98.045	-66.0841
3550.000000	97.961	-65.8249
3600.000000	97.876	-65.5475
3650.000000	97.790	-65.2647
3700.000000	97.699	-64.9884
3750.000000	97.604	-64.7231
3820.000000	97.453	-64.3706
3870.000000	97.328	-64.0974
3950.000000	97.098	-63.4930
4000.000000	96.945	-62.9551
4060.000000	96.768	-62.1442
4120.000000	96.607	-61.2418
4180.000000	96.461	-60.3518
4250.000000	96.296	-59.3980
4310.000000	96.146	-58.6652
4370.000000	95.975	-57.9740
4440.000000	95.742	-57.1291
4500.000000	95.511	-56.2665
4550.000000	95.303	-55.3793
4620.000000	95.005	-53.8250
4680.000000	94.761	-52.2286
4750.000000	94.505	-50.1722
4820.000000	94.280	-48.0240
4870.000000	94.133	-46.4797
4940.000000	93.939	-44.3328
5000.000000	93.775	-42.4900
5080.000000	93.556	-39.9823
5150.000000	93.367	-37.7156
5220.000000	93.184	-35.3693
5300.000000	92.983	-32.5871
5380.000000	92.794	-29.6998
5450.000000	92.641	-27.0853
5520.000000	92.500	-24.3877
5600.000000	92.357	-21.2144
5700.000000	92.206	-17.1039
5800.000000	92.095	-12.7998
5900.000000	92.048	-8.3093
6000.000000	92.107	-3.8241
6080.000000	92.232	-0.6957
6150.000000	92.324	1.4503
6220.000000	92.333	3.4701
6300.000000	92.296	6.3465
6400.000000	92.337	10.6878
6500.000000	92.510	15.1329
6600.000000	92.779	19.3385
6700.000000	93.116	23.2290
6800.000000	93.511	26.7781
6900.000000	93.954	29.9778
7000.000000	94.445	32.8348
7100.000000	94.991	35.3357
7200.000000	95.601	37.3954
7300.000000	96.279	38.8476
7400.000000	97.018	39.4698
7500.000000	97.789	39.0120
7620.000000	98.687	36.7531
7750.000000	99.502	32.1011
7880.000000	100.010	25.5872
8000.000000	100.122	18.8352
8120.000000	99.892	12.3859
8250.000000	99.354	6.5286
8380.000000	98.645	2.1010
8500.000000	97.929	-0.8493
8620.000000	97.213	-2.9896
8750.000000	96.477	-4.8852
8850.000000	95.926	-6.4173
9000.000000	95.030	-8.9532
9120.000000	94.202	-10.8274
9250.000000	93.196	-12.3475
9380.000000	92.101	-13.1496
9500.000000	91.034	-13.1561
9620.000000	89.936	-12.4210
9750.000000	88.740	-10.8030
9880.000000	87.563	-8.3932
10000.000000	86.517	-5.5504
10150.000000	85.287	-1.3046
10300.000000	84.155	3.5323
10440.000000	83.187	8.4459
10600.000000	82.189	14.4082
10750.000000	81.358	20.2319
10900.000000	80.633	26.1815
11060.000000	79.976	32.5711
11200.000000	79.501	38.1282
11380.000000	79.030	45.1216
11500.000000	78.803	49.6034
11720.000000	78.543	57.2840
11800.000000	78.489	59.9449
12060.000000	78.539	68.4484
12200.000000	78.778	72.5839
12410.000000	79.395	77.2247
12500.000000	79.730	78.4988
12650.000000	80.351	79.5478
12800.000000	80.996	79.1171
13150.000000	82.178	72.3581
13200.000000	82.273	70.8794
13400.000000	82.425	64.5053
13600.000000	82.257	58.4786
13800.000000	81.931	53.6269
14000.000000	81.653	49.7239
14300.000000	81.646	42.8562
14500.000000	81.856	34.5903
14750.000000	81.746	17.1706
15000.000000	80.391	-5.0301
15250.000000	77.467	-22.4165
15500.000000	73.620	-30.4386
15750.000000	69.774	-32.4452
16000.000000	66.351	-32.1309
16250.000000	63.395	-31.9670
16500.000000	60.820	-33.6254
16750.000000	58.497	-38.0699
17000.000000	56.367	-45.3551
17250.000000	54.575	-55.9072
17500.000000	53.186	-69.8309
17750.000000	52.236	-85.4280
18000.000000	51.836	-100.9397
18250.000000	51.986	-115.4677
18500.000000	52.609	-129.6409
18750.000000	53.596	-145.0625
19000.000000	54.757	-163.6093
19250.000000	55.852	172.7357
19500.000000	56.462	142.8741
19750.000000	56.251	111.8828
