* Measurement data measured by REW V5.20.13
* Source: Headset (USB-C to 3.5mm Headphone Jack Adapter), MICROPHONE (Master Volume), L, volume: 0.250
* Format: 256k Log Swept Sine, 1 sweep at -12.0 dBFS with no timing reference
* Dated: 09 29, 24 9:15:33 PM
* REW Settings:
*  C-weighting compensation: Off
*  Target level: 75.0 dB
* Note: CP100
* Measurement: Mee Pinnacle P2 L CP100
* Smoothing: 1/24 octave
* Frequency Step: 1/48 octave
* Start Frequency: 20.300 Hz
*
* Freq(Hz)	SPL(dB)	Phase(degrees)
20.299999	95.021	-100.4506
20.600000	95.067	-101.0775
20.900000	95.157	-102.1937
21.200001	95.238	-103.2447
21.400000	95.288	-103.9083
21.799999	95.387	-105.2016
22.000000	95.436	-105.8451
22.400000	95.538	-107.1102
22.700001	95.615	-108.0380
23.000000	95.691	-108.9577
23.299999	95.764	-109.8736
23.600000	95.832	-110.7838
24.000000	95.911	-111.9756
24.299999	95.960	-112.8353
24.700001	96.015	-113.9142
25.000000	96.053	-114.6694
25.400000	96.104	-115.6206
25.799999	96.161	-116.5467
26.200001	96.220	-117.4838
26.500000	96.264	-118.2009
26.900000	96.321	-119.1661
27.200001	96.361	-119.8840
27.600000	96.411	-120.8205
28.000000	96.460	-121.7327
28.500000	96.520	-122.8514
29.000000	96.573	-123.9490
29.500000	96.620	-125.0081
30.000000	96.663	-126.0174
30.400000	96.699	-126.8011
30.700001	96.725	-127.3859
31.100000	96.760	-128.1694
31.500000	96.793	-128.9532
32.000000	96.829	-129.9119
32.500000	96.861	-130.8271
33.000000	96.894	-131.7016
33.500000	96.927	-132.5533
34.000000	96.960	-133.3945
34.500000	96.989	-134.2219
35.000000	97.016	-135.0275
35.500000	97.040	-135.8095
36.000000	97.063	-136.5748
36.500000	97.082	-137.3298
37.000000	97.099	-138.0720
37.500000	97.113	-138.7926
38.200001	97.136	-139.7605
38.700001	97.154	-140.4367
39.500000	97.180	-141.5164
40.000000	97.191	-142.1793
40.599998	97.201	-142.9532
41.200001	97.212	-143.7202
41.799999	97.220	-144.4905
42.500000	97.226	-145.3536
43.099998	97.231	-146.0221
43.700001	97.238	-146.6387
44.400002	97.250	-147.3442
45.000000	97.257	-147.9562
45.500000	97.259	-148.4642
46.200001	97.261	-149.1641
46.799999	97.262	-149.7553
47.500000	97.264	-150.4341
48.200001	97.268	-151.0948
48.700001	97.271	-151.5524
49.400002	97.270	-152.1589
50.000000	97.260	-152.6251
50.799999	97.243	-153.1804
51.500000	97.234	-153.6949
52.200001	97.231	-154.2966
53.000000	97.227	-155.0016
53.799999	97.224	-155.6100
54.500000	97.223	-156.0920
55.200001	97.219	-156.5801
56.000000	97.211	-157.1494
57.000000	97.207	-157.8401
58.000000	97.206	-158.4703
59.000000	97.194	-159.0897
60.000000	97.168	-159.6702
60.799999	97.152	-160.0526
61.500000	97.146	-160.3784
62.200001	97.139	-160.7513
63.000000	97.124	-161.2428
64.000000	97.097	-161.8751
65.000000	97.078	-162.4237
66.000000	97.066	-162.9122
67.000000	97.048	-163.3731
68.000000	97.030	-163.8144
69.000000	97.011	-164.2729
70.000000	96.987	-164.7044
71.000000	96.966	-165.0834
72.000000	96.951	-165.4727
73.000000	96.941	-165.9319
74.000000	96.932	-166.4481
75.000000	96.912	-166.8604
76.199997	96.869	-167.1690
77.500000	96.799	-167.4361
78.800003	96.782	-167.6299
80.000000	96.805	-167.9887
81.199997	96.793	-168.4961
82.500000	96.767	-169.0383
83.800003	96.769	-169.4909
85.000000	96.771	-169.9976
86.199997	96.731	-170.4964
87.500000	96.672	-170.5979
88.500000	96.633	-170.6080
90.000000	96.562	-170.8735
91.199997	96.558	-171.0650
92.500000	96.596	-171.3508
93.800003	96.597	-171.6369
95.000000	96.580	-171.8323
96.199997	96.564	-172.0334
97.500000	96.543	-172.2991
98.800003	96.520	-172.5751
100.000000	96.499	-172.8011
101.500000	96.472	-173.0510
103.000000	96.446	-173.3047
104.400002	96.423	-173.5372
106.000000	96.398	-173.7881
107.500000	96.375	-174.0061
109.000000	96.352	-174.2077
110.599998	96.328	-174.4111
112.000000	96.307	-174.5887
113.800003	96.280	-174.8158
115.000000	96.263	-174.9595
117.199997	96.232	-175.2150
118.000000	96.222	-175.3070
120.599998	96.185	-175.5873
122.000000	96.165	-175.7146
124.099998	96.139	-175.9015
125.000000	96.128	-175.9804
126.500000	96.112	-176.1067
128.000000	96.097	-176.2310
131.500000	96.064	-176.5061
132.000000	96.059	-176.5432
134.000000	96.041	-176.6904
136.000000	96.022	-176.8294
138.000000	96.004	-176.9582
140.000000	95.986	-177.0800
143.000000	95.960	-177.2526
145.000000	95.943	-177.3629
147.500000	95.922	-177.4915
150.000000	95.901	-177.6117
152.500000	95.878	-177.7308
155.000000	95.856	-177.8370
157.500000	95.838	-177.9262
160.000000	95.816	-178.0283
162.500000	95.785	-178.1235
165.000000	95.751	-178.2081
167.500000	95.715	-178.2851
170.000000	95.679	-178.3567
172.500000	95.645	-178.4216
175.000000	95.610	-178.4847
177.500000	95.577	-178.5461
180.000000	95.543	-178.6018
182.500000	95.510	-178.6511
185.000000	95.477	-178.6967
187.500000	95.445	-178.7399
190.000000	95.413	-178.7789
192.500000	95.382	-178.8104
195.000000	95.351	-178.8382
197.500000	95.321	-178.8640
200.000000	95.295	-178.8870
203.000000	95.272	-178.9082
206.000000	95.254	-178.9222
209.000000	95.236	-178.9315
212.000000	95.219	-178.9401
214.000000	95.209	-178.9451
218.000000	95.189	-178.9523
220.000000	95.178	-178.9552
224.000000	95.157	-178.9625
227.000000	95.141	-178.9660
230.000000	95.123	-178.9620
233.000000	95.106	-178.9509
236.000000	95.089	-178.9339
240.000000	95.066	-178.9036
243.000000	95.049	-178.8775
247.000000	95.025	-178.8339
250.000000	95.007	-178.7904
254.000000	94.980	-178.7211
258.000000	94.954	-178.6405
262.000000	94.929	-178.5482
265.000000	94.912	-178.4735
269.000000	94.892	-178.3732
272.000000	94.880	-178.3037
276.000000	94.865	-178.2226
280.000000	94.851	-178.1552
285.000000	94.832	-178.0948
290.000000	94.810	-178.0513
295.000000	94.787	-178.0117
300.000000	94.763	-177.9687
304.000000	94.743	-177.9323
307.000000	94.726	-177.9048
311.000000	94.704	-177.8668
315.000000	94.682	-177.8266
320.000000	94.654	-177.7691
325.000000	94.625	-177.6996
330.000000	94.595	-177.6208
335.000000	94.566	-177.5325
340.000000	94.537	-177.4363
345.000000	94.509	-177.3314
350.000000	94.480	-177.2179
355.000000	94.450	-177.1015
360.000000	94.421	-176.9832
365.000000	94.393	-176.8616
370.000000	94.365	-176.7314
375.000000	94.337	-176.5956
382.000000	94.299	-176.4044
387.000000	94.272	-176.2647
395.000000	94.228	-176.0369
400.000000	94.200	-175.8910
406.000000	94.167	-175.7110
412.000000	94.135	-175.5249
418.000000	94.103	-175.3346
425.000000	94.065	-175.1085
431.000000	94.032	-174.9085
437.000000	94.000	-174.7024
444.000000	93.962	-174.4543
450.000000	93.930	-174.2370
455.000000	93.903	-174.0533
462.000000	93.866	-173.7919
468.000000	93.834	-173.5640
475.000000	93.797	-173.2903
482.000000	93.760	-173.0104
487.000000	93.734	-172.8074
494.000000	93.697	-172.5179
500.000000	93.666	-172.2654
508.000000	93.624	-171.9217
515.000000	93.589	-171.6138
522.000000	93.553	-171.3007
530.000000	93.513	-170.9376
538.000000	93.473	-170.5676
545.000000	93.438	-170.2359
552.000000	93.403	-169.8987
560.000000	93.364	-169.5088
570.000000	93.315	-169.0100
580.000000	93.267	-168.4995
590.000000	93.220	-167.9763
600.000000	93.175	-167.4428
608.000000	93.138	-167.0110
615.000000	93.107	-166.6285
622.000000	93.076	-166.2398
630.000000	93.041	-165.7881
640.000000	92.997	-165.2155
650.000000	92.954	-164.6321
660.000000	92.912	-164.0378
670.000000	92.871	-163.4361
680.000000	92.831	-162.8249
690.000000	92.793	-162.2044
700.000000	92.757	-161.5753
710.000000	92.722	-160.9373
720.000000	92.688	-160.2918
730.000000	92.657	-159.6400
740.000000	92.626	-158.9820
750.000000	92.598	-158.3177
762.000000	92.567	-157.5117
775.000000	92.536	-156.6309
788.000000	92.508	-155.7430
800.000000	92.484	-154.9182
812.000000	92.462	-154.0899
825.000000	92.442	-153.1898
838.000000	92.425	-152.2898
850.000000	92.412	-151.4606
862.000000	92.402	-150.6339
875.000000	92.395	-149.7407
885.000000	92.392	-149.0568
900.000000	92.391	-148.0407
912.000000	92.394	-147.2386
925.000000	92.399	-146.3814
938.000000	92.408	-145.5365
950.000000	92.418	-144.7694
962.000000	92.431	-144.0164
975.000000	92.446	-143.2160
988.000000	92.464	-142.4315
1000.000000	92.483	-141.7229
1015.000000	92.511	-140.8594
1030.000000	92.542	-140.0194
1044.000000	92.572	-139.2570
1060.000000	92.607	-138.4124
1075.000000	92.641	-137.6461
1090.000000	92.675	-136.9019
1106.000000	92.713	-136.1348
1120.000000	92.746	-135.4882
1138.000000	92.790	-134.6913
1150.000000	92.821	-134.1884
1172.000000	92.883	-133.3696
1180.000000	92.907	-133.1275
1206.000000	92.963	-132.7641
1220.000000	92.926	-132.8390
1241.000000	92.718	-132.2364
1250.000000	92.632	-131.4105
1265.000000	92.590	-129.7162
1280.000000	92.648	-128.2939
1315.000000	92.807	-126.2325
1320.000000	92.824	-125.9977
1340.000000	92.883	-125.1001
1360.000000	92.936	-124.2347
1380.000000	92.987	-123.3893
1400.000000	93.039	-122.5690
1430.000000	93.127	-121.4206
1450.000000	93.197	-120.7474
1475.000000	93.299	-120.0865
1500.000000	93.419	-119.7824
1525.000000	93.541	-120.1680
1550.000000	93.579	-121.7305
1575.000000	93.319	-124.2622
1600.000000	92.605	-125.4140
1625.000000	91.725	-122.7430
1650.000000	91.204	-117.5218
1675.000000	91.125	-112.4507
1700.000000	91.252	-108.5246
1725.000000	91.426	-105.5429
1750.000000	91.591	-103.1416
1775.000000	91.736	-101.0734
1800.000000	91.864	-99.1964
1825.000000	91.977	-97.4287
1850.000000	92.080	-95.7209
1875.000000	92.175	-94.0408
1900.000000	92.265	-92.3649
1925.000000	92.356	-90.6762
1950.000000	92.453	-88.9698
1975.000000	92.560	-87.2656
2000.000000	92.680	-85.6062
2030.000000	92.837	-83.7411
2060.000000	92.994	-82.0377
2090.000000	93.142	-80.4465
2120.000000	93.279	-78.8997
2140.000000	93.367	-77.8733
2180.000000	93.539	-75.8171
2200.000000	93.625	-74.7886
2240.000000	93.800	-72.7400
2270.000000	93.934	-71.2173
2300.000000	94.071	-69.7124
2330.000000	94.212	-68.2295
2360.000000	94.356	-66.7699
2400.000000	94.553	-64.8622
2430.000000	94.704	-63.4630
2470.000000	94.911	-61.6405
2500.000000	95.072	-60.3072
2540.000000	95.294	-58.5842
2580.000000	95.526	-56.9469
2620.000000	95.762	-55.4164
2650.000000	95.939	-54.3423
2690.000000	96.175	-52.9989
2720.000000	96.350	-52.0518
2760.000000	96.580	-50.8640
2800.000000	96.807	-49.7608
2850.000000	97.085	-48.5012
2900.000000	97.352	-47.3710
2950.000000	97.605	-46.3597
3000.000000	97.841	-45.4455
3040.000000	98.014	-44.7590
3070.000000	98.135	-44.2518
3110.000000	98.283	-43.5553
3150.000000	98.420	-42.8011
3200.000000	98.589	-41.7613
3250.000000	98.773	-40.6969
3300.000000	98.979	-39.7762
3350.000000	99.184	-39.1085
3400.000000	99.367	-38.6598
3450.000000	99.517	-38.3229
3500.000000	99.636	-38.0033
3550.000000	99.729	-37.6436
3600.000000	99.802	-37.2140
3650.000000	99.860	-36.7032
3700.000000	99.908	-36.1072
3750.000000	99.950	-35.4268
3820.000000	100.004	-34.3437
3870.000000	100.042	-33.4875
3950.000000	100.110	-32.0036
4000.000000	100.159	-31.0289
4060.000000	100.225	-29.8418
4120.000000	100.298	-28.6648
4180.000000	100.372	-27.5198
4250.000000	100.449	-26.2194
4310.000000	100.499	-25.0712
4370.000000	100.537	-23.7813
4440.000000	100.589	-21.9909
4500.000000	100.672	-20.2794
4550.000000	100.772	-18.8818
4620.000000	100.925	-17.1502
4680.000000	101.018	-15.5754
4750.000000	101.177	-12.8998
4820.000000	101.548	-10.1287
4870.000000	101.895	-8.7725
4940.000000	102.394	-7.7517
5000.000000	102.810	-7.4764
5080.000000	103.341	-7.8257
5150.000000	103.775	-8.8126
5220.000000	104.160	-10.4586
5300.000000	104.505	-13.0982
5380.000000	104.711	-16.3711
5450.000000	104.754	-19.5168
5520.000000	104.664	-22.6650
5600.000000	104.406	-25.9522
5700.000000	103.893	-29.1717
5800.000000	103.236	-31.1038
5900.000000	102.514	-31.6893
6000.000000	101.790	-31.0570
6080.000000	101.241	-29.8219
6150.000000	100.795	-28.3112
6220.000000	100.386	-26.4723
6300.000000	99.972	-24.0478
6400.000000	99.538	-20.6457
6500.000000	99.194	-16.9416
6600.000000	98.937	-13.0280
6700.000000	98.766	-8.9837
6800.000000	98.684	-4.8828
6900.000000	98.695	-0.7963
7000.000000	98.801	3.2033
7100.000000	99.011	7.0255
7200.000000	99.331	10.5548
7300.000000	99.768	13.6398
7400.000000	100.331	16.0764
7500.000000	101.020	17.5791
7620.000000	101.994	17.5724
7750.000000	103.114	14.2938
7880.000000	104.017	6.5921
8000.000000	104.311	-4.0629
8120.000000	103.863	-15.7302
8250.000000	102.601	-25.9997
8380.000000	100.851	-31.9229
8500.000000	99.110	-33.7909
8620.000000	97.435	-33.1260
8750.000000	95.785	-30.4870
8850.000000	94.644	-27.5445
9000.000000	93.132	-22.1536
9120.000000	92.077	-17.2707
9250.000000	91.069	-11.6028
9380.000000	90.186	-5.6680
9500.000000	89.470	-0.0296
9620.000000	88.840	5.7157
9750.000000	88.248	12.0237
9880.000000	87.746	18.3906
10000.000000	87.363	24.2950
10150.000000	86.994	31.6745
10300.000000	86.740	39.0093
10440.000000	86.603	45.7831
10600.000000	86.566	53.4056
10750.000000	86.652	60.3946
10900.000000	86.864	67.1832
11060.000000	87.242	74.1320
11200.000000	87.721	79.8860
11380.000000	88.580	86.6671
11500.000000	89.338	90.6440
11720.000000	91.251	96.0543
11800.000000	92.151	97.0166
12060.000000	95.616	92.0503
12200.000000	97.256	80.8690
12410.000000	98.102	52.7650
12500.000000	97.683	40.0795
12650.000000	96.090	23.7614
12800.000000	93.863	14.9979
13150.000000	88.930	12.3640
13200.000000	88.367	12.9465
13400.000000	86.463	16.2114
13600.000000	85.007	20.2524
13800.000000	83.897	24.5196
14000.000000	83.072	28.7145
14300.000000	82.290	34.5608
14500.000000	82.064	38.0080
14750.000000	82.140	41.5441
15000.000000	82.664	43.6674
15250.000000	83.660	43.4600
15500.000000	85.147	39.8254
15750.000000	87.029	30.3439
16000.000000	88.594	11.0810
16250.000000	88.732	-15.7720
16500.000000	87.440	-39.0256
16750.000000	85.774	-57.1781
17000.000000	83.999	-72.5602
17250.000000	82.209	-85.0468
17500.000000	80.667	-95.7939
17750.000000	79.508	-106.3279
18000.000000	78.749	-117.8465
18250.000000	78.372	-131.3606
18500.000000	78.352	-147.9200
18750.000000	78.627	-168.7780
19000.000000	79.057	164.5826
19250.000000	79.381	130.8385
19500.000000	79.279	90.2949
19750.000000	78.598	48.9494
