* Measurement data measured by REW V5.20.13
* Source: Headset (USB-C to 3.5mm Headphone Jack Adapter), MICROPHONE (Master Volume), L, volume: 0.250
* Format: 256k Log Swept Sine, 1 sweep at -12.0 dBFS with no timing reference
* Dated: 09 30, 24 5:07:52 PM
* REW Settings:
*  C-weighting compensation: Off
*  Target level: 75.0 dB
* Note: ; CP100
* Measurement: Oriolus Isabellae Max ASMR R
* Smoothing: 1/24 octave
* Frequency Step: 1/48 octave
* Start Frequency: 20.300 Hz
*
* Freq(Hz)	SPL(dB)	Phase(degrees)
20.299999	93.797	-101.3885
20.600000	93.847	-102.0710
20.900000	93.942	-103.2775
21.200001	94.021	-104.3821
21.400000	94.064	-105.0405
21.799999	94.139	-106.2031
22.000000	94.176	-106.7188
22.400000	94.254	-107.6311
22.700001	94.321	-108.2706
23.000000	94.395	-108.9545
23.299999	94.470	-109.7342
23.600000	94.541	-110.6176
24.000000	94.618	-111.9091
24.299999	94.662	-112.8833
24.700001	94.715	-114.0892
25.000000	94.758	-114.8954
25.400000	94.833	-115.8763
25.799999	94.922	-116.8512
26.200001	95.009	-117.8987
26.500000	95.062	-118.7287
26.900000	95.111	-119.8432
27.200001	95.137	-120.6454
27.600000	95.169	-121.6525
28.000000	95.210	-122.6247
28.500000	95.279	-123.8678
29.000000	95.349	-125.1255
29.500000	95.406	-126.2608
30.000000	95.455	-127.1679
30.400000	95.496	-127.7720
30.700001	95.529	-128.2137
31.100000	95.571	-128.8592
31.500000	95.603	-129.5927
32.000000	95.624	-130.5789
32.500000	95.634	-131.5250
33.000000	95.655	-132.3541
33.500000	95.701	-133.0917
34.000000	95.769	-133.8265
34.500000	95.840	-134.6313
35.000000	95.892	-135.5048
35.500000	95.914	-136.3702
36.000000	95.915	-137.1389
36.500000	95.918	-137.7917
37.000000	95.941	-138.4034
37.500000	95.983	-139.0749
38.200001	96.045	-140.1716
38.700001	96.072	-140.9905
39.500000	96.093	-142.1861
40.000000	96.107	-142.8660
40.599998	96.132	-143.6714
41.200001	96.161	-144.4854
41.799999	96.182	-145.2677
42.500000	96.193	-146.0712
43.099998	96.198	-146.6700
43.700001	96.209	-147.2747
44.400002	96.224	-148.0847
45.000000	96.228	-148.8241
45.500000	96.223	-149.3769
46.200001	96.221	-150.0066
46.799999	96.236	-150.5148
47.500000	96.264	-151.2322
48.200001	96.284	-152.0626
48.700001	96.291	-152.6477
49.400002	96.296	-153.3931
50.000000	96.299	-153.9741
50.799999	96.298	-154.7031
51.500000	96.292	-155.3161
52.200001	96.283	-155.9150
53.000000	96.280	-156.5913
53.799999	96.292	-157.2730
54.500000	96.310	-157.8660
55.200001	96.326	-158.4175
56.000000	96.333	-158.9794
57.000000	96.324	-159.6791
58.000000	96.316	-160.5078
59.000000	96.323	-161.4117
60.000000	96.328	-162.1802
60.799999	96.322	-162.6536
61.500000	96.311	-163.0473
62.200001	96.297	-163.4919
63.000000	96.282	-164.0686
64.000000	96.270	-164.8234
65.000000	96.256	-165.5307
66.000000	96.240	-166.1263
67.000000	96.234	-166.6585
68.000000	96.230	-167.2349
69.000000	96.209	-167.8006
70.000000	96.184	-168.3128
71.000000	96.170	-168.8590
72.000000	96.161	-169.4350
73.000000	96.145	-169.9960
74.000000	96.121	-170.5341
75.000000	96.103	-171.0436
76.199997	96.093	-171.6648
77.500000	96.079	-172.3027
78.800003	96.071	-173.0084
80.000000	96.043	-173.5792
81.199997	96.002	-173.9872
82.500000	95.963	-174.4953
83.800003	95.928	-175.0569
85.000000	95.867	-175.6218
86.199997	95.796	-176.2575
87.500000	95.782	-176.8835
88.500000	95.793	-177.2711
90.000000	95.737	-177.7337
91.199997	95.668	-178.1731
92.500000	95.647	-178.6901
93.800003	95.656	-179.0373
95.000000	95.659	-179.1561
96.199997	95.667	-179.3769
97.500000	95.656	-179.7832
98.800003	95.623	179.8217
100.000000	95.593	179.4594
101.500000	95.555	179.0139
103.000000	95.499	178.5198
104.400002	95.445	177.9490
106.000000	95.412	177.4921
107.500000	95.413	177.1941
109.000000	95.400	176.7273
110.599998	95.355	176.2590
112.000000	95.307	175.9725
113.800003	95.251	175.6064
115.000000	95.217	175.3394
117.199997	95.174	174.7910
118.000000	95.163	174.5833
120.599998	95.101	174.2087
122.000000	95.060	174.0638
124.099998	95.000	173.6618
125.000000	94.979	173.4680
126.500000	94.947	173.1263
128.000000	94.913	172.8061
131.500000	94.840	172.1978
132.000000	94.828	172.1139
134.000000	94.772	171.7438
136.000000	94.728	171.3696
138.000000	94.704	171.1400
140.000000	94.668	170.9128
143.000000	94.581	170.5234
145.000000	94.536	170.2543
147.500000	94.489	169.9331
150.000000	94.433	169.6428
152.500000	94.367	169.4321
155.000000	94.300	169.1997
157.500000	94.252	168.8969
160.000000	94.198	168.5957
162.500000	94.133	168.3147
165.000000	94.072	168.0221
167.500000	94.018	167.7736
170.000000	93.959	167.5927
172.500000	93.890	167.4145
175.000000	93.815	167.2038
177.500000	93.729	167.0353
180.000000	93.650	166.9099
182.500000	93.579	166.7917
185.000000	93.512	166.7437
187.500000	93.440	166.6626
190.000000	93.368	166.4194
192.500000	93.308	166.2226
195.000000	93.253	166.0974
197.500000	93.193	166.0216
200.000000	93.132	165.9774
203.000000	93.066	165.9434
206.000000	92.996	165.9066
209.000000	92.928	165.8816
212.000000	92.868	165.7926
214.000000	92.838	165.6429
218.000000	92.788	165.4332
220.000000	92.756	165.4108
224.000000	92.688	165.4150
227.000000	92.633	165.4088
230.000000	92.577	165.3822
233.000000	92.523	165.3649
236.000000	92.469	165.3494
240.000000	92.410	165.2842
243.000000	92.364	165.3292
247.000000	92.295	165.4297
250.000000	92.243	165.4951
254.000000	92.165	165.5489
258.000000	92.097	165.5417
262.000000	92.032	165.5682
265.000000	91.979	165.6241
269.000000	91.917	165.7152
272.000000	91.869	165.7932
276.000000	91.802	165.8978
280.000000	91.740	165.9954
285.000000	91.655	166.1192
290.000000	91.571	166.2255
295.000000	91.497	166.4115
300.000000	91.427	166.6067
304.000000	91.371	166.7188
307.000000	91.327	166.8035
311.000000	91.270	166.9498
315.000000	91.216	167.1231
320.000000	91.146	167.3701
325.000000	91.070	167.6523
330.000000	90.998	167.9378
335.000000	90.943	168.1395
340.000000	90.889	168.2781
345.000000	90.827	168.5054
350.000000	90.764	168.7784
355.000000	90.703	169.0378
360.000000	90.646	169.3052
365.000000	90.590	169.5923
370.000000	90.536	169.8812
375.000000	90.484	170.1721
382.000000	90.408	170.5585
387.000000	90.353	170.8376
395.000000	90.264	171.3182
400.000000	90.220	171.6135
406.000000	90.171	171.9461
412.000000	90.115	172.2853
418.000000	90.053	172.7078
425.000000	89.990	173.2126
431.000000	89.936	173.6203
437.000000	89.880	174.0325
444.000000	89.820	174.5056
450.000000	89.774	174.9063
455.000000	89.734	175.2475
462.000000	89.673	175.7366
468.000000	89.622	176.1698
475.000000	89.571	176.6894
482.000000	89.518	177.1964
487.000000	89.480	177.5609
494.000000	89.427	178.0986
500.000000	89.382	178.5930
508.000000	89.319	179.2405
515.000000	89.265	179.8117
522.000000	89.209	-179.5396
530.000000	89.144	-178.7213
538.000000	89.085	-177.8223
545.000000	89.044	-176.9451
552.000000	89.023	-175.9942
560.000000	89.030	-174.9191
570.000000	89.080	-173.7453
580.000000	89.147	-172.9335
590.000000	89.190	-172.3914
600.000000	89.199	-171.9092
608.000000	89.185	-171.4834
615.000000	89.163	-171.0424
622.000000	89.141	-170.5389
630.000000	89.125	-169.9064
640.000000	89.122	-169.1167
650.000000	89.121	-168.3938
660.000000	89.114	-167.7249
670.000000	89.108	-167.0020
680.000000	89.102	-166.2353
690.000000	89.097	-165.4680
700.000000	89.093	-164.6997
710.000000	89.091	-163.9258
720.000000	89.090	-163.1286
730.000000	89.094	-162.3162
740.000000	89.103	-161.5061
750.000000	89.116	-160.7011
762.000000	89.136	-159.7242
775.000000	89.161	-158.6732
788.000000	89.193	-157.6175
800.000000	89.226	-156.6343
812.000000	89.261	-155.6737
825.000000	89.307	-154.6501
838.000000	89.358	-153.6368
850.000000	89.411	-152.7121
862.000000	89.467	-151.7986
875.000000	89.534	-150.8349
885.000000	89.588	-150.1079
900.000000	89.672	-149.0373
912.000000	89.745	-148.2180
925.000000	89.829	-147.3667
938.000000	89.914	-146.5240
950.000000	89.992	-145.7673
962.000000	90.072	-145.0513
975.000000	90.165	-144.3139
988.000000	90.265	-143.5836
1000.000000	90.361	-142.9406
1015.000000	90.483	-142.1918
1030.000000	90.604	-141.4837
1044.000000	90.719	-140.8587
1060.000000	90.849	-140.1825
1075.000000	90.971	-139.5833
1090.000000	91.091	-139.0211
1106.000000	91.218	-138.4557
1120.000000	91.328	-137.9825
1138.000000	91.468	-137.4076
1150.000000	91.559	-137.0485
1172.000000	91.725	-136.4213
1180.000000	91.784	-136.1994
1206.000000	91.975	-135.5172
1220.000000	92.076	-135.1768
1241.000000	92.223	-134.6884
1250.000000	92.285	-134.4822
1265.000000	92.388	-134.1397
1280.000000	92.489	-133.8035
1315.000000	92.725	-133.0736
1320.000000	92.758	-132.9763
1340.000000	92.889	-132.6000
1360.000000	93.016	-132.2355
1380.000000	93.140	-131.8786
1400.000000	93.261	-131.5194
1430.000000	93.439	-130.9662
1450.000000	93.556	-130.5816
1475.000000	93.706	-130.0662
1500.000000	93.866	-129.5233
1525.000000	94.038	-129.0309
1550.000000	94.211	-128.6487
1575.000000	94.370	-128.3162
1600.000000	94.520	-127.9340
1625.000000	94.671	-127.4536
1650.000000	94.838	-126.8917
1675.000000	95.028	-126.3086
1700.000000	95.246	-125.7881
1725.000000	95.489	-125.4415
1750.000000	95.741	-125.3391
1775.000000	95.985	-125.4702
1800.000000	96.207	-125.7669
1825.000000	96.407	-126.1517
1850.000000	96.586	-126.5650
1875.000000	96.747	-126.9555
1900.000000	96.898	-127.2779
1925.000000	97.049	-127.5147
1950.000000	97.213	-127.7005
1975.000000	97.397	-127.9245
2000.000000	97.595	-128.2934
2030.000000	97.831	-129.0077
2060.000000	98.041	-129.9805
2090.000000	98.212	-131.0882
2120.000000	98.345	-132.2161
2140.000000	98.415	-132.9380
2180.000000	98.520	-134.2319
2200.000000	98.560	-134.7788
2240.000000	98.631	-135.6159
2270.000000	98.696	-135.9940
2300.000000	98.798	-136.2354
2330.000000	98.947	-136.5493
2360.000000	99.127	-137.1463
2400.000000	99.362	-138.4991
2430.000000	99.501	-139.8416
2470.000000	99.619	-141.8326
2500.000000	99.659	-143.3333
2540.000000	99.660	-145.2083
2580.000000	99.617	-146.8624
2620.000000	99.545	-148.2596
2650.000000	99.484	-149.1432
2690.000000	99.400	-150.1471
2720.000000	99.339	-150.8128
2760.000000	99.254	-151.6256
2800.000000	99.160	-152.3391
2850.000000	99.032	-153.0093
2900.000000	98.909	-153.3900
2950.000000	98.810	-153.5391
3000.000000	98.743	-153.5981
3040.000000	98.707	-153.6616
3070.000000	98.686	-153.7285
3110.000000	98.658	-153.8244
3150.000000	98.630	-153.9084
3200.000000	98.596	-154.0033
3250.000000	98.569	-154.1214
3300.000000	98.545	-154.2817
3350.000000	98.521	-154.4623
3400.000000	98.495	-154.6358
3450.000000	98.473	-154.7935
3500.000000	98.455	-154.9379
3550.000000	98.446	-155.0795
3600.000000	98.445	-155.2437
3650.000000	98.451	-155.4535
3700.000000	98.462	-155.7261
3750.000000	98.477	-156.0768
3820.000000	98.493	-156.7030
3870.000000	98.497	-157.2186
3950.000000	98.490	-158.0996
4000.000000	98.480	-158.6762
4060.000000	98.467	-159.3532
4120.000000	98.474	-160.0307
4180.000000	98.498	-161.0113
4250.000000	98.487	-162.5290
4310.000000	98.433	-163.9394
4370.000000	98.346	-165.3906
4440.000000	98.202	-167.0918
4500.000000	98.042	-168.5115
4550.000000	97.883	-169.6368
4620.000000	97.626	-171.0868
4680.000000	97.379	-172.1847
4750.000000	97.062	-173.2712
4820.000000	96.720	-174.1247
4870.000000	96.464	-174.5806
4940.000000	96.094	-174.9933
5000.000000	95.769	-175.1372
5080.000000	95.333	-175.0408
5150.000000	94.953	-174.6999
5220.000000	94.579	-174.1291
5300.000000	94.164	-173.2050
5380.000000	93.767	-172.0090
5450.000000	93.438	-170.7513
5520.000000	93.130	-169.3118
5600.000000	92.808	-167.4730
5700.000000	92.454	-164.9389
5800.000000	92.156	-162.2064
5900.000000	91.915	-159.3230
6000.000000	91.730	-156.3165
6080.000000	91.625	-153.8397
6150.000000	91.566	-151.6369
6220.000000	91.541	-149.4202
6300.000000	91.557	-146.8954
6400.000000	91.644	-143.7935
6500.000000	91.802	-140.8004
6600.000000	92.027	-137.9577
6700.000000	92.316	-135.3033
6800.000000	92.671	-132.8769
6900.000000	93.093	-130.7178
7000.000000	93.583	-128.8725
7100.000000	94.146	-127.4068
7200.000000	94.788	-126.4156
7300.000000	95.511	-126.0286
7400.000000	96.316	-126.4279
7500.000000	97.194	-127.8669
7620.000000	98.301	-131.4352
7750.000000	99.436	-138.2399
7880.000000	100.263	-148.3951
8000.000000	100.525	-159.8949
8120.000000	100.205	-171.5203
8250.000000	99.306	177.9515
8380.000000	98.077	170.6454
8500.000000	96.864	166.5992
8620.000000	95.705	164.5537
8750.000000	94.586	163.9260
8850.000000	93.838	164.2147
9000.000000	92.905	165.4632
9120.000000	92.316	166.8986
9250.000000	91.830	168.6742
9380.000000	91.495	170.5168
9500.000000	91.318	172.1556
9620.000000	91.271	173.6130
9750.000000	91.371	174.8193
9880.000000	91.640	175.4059
10000.000000	92.045	175.1106
10150.000000	92.751	173.0077
10300.000000	93.584	168.0181
10440.000000	94.280	159.8394
10600.000000	94.630	146.2236
10750.000000	94.238	131.3539
10900.000000	93.101	117.8597
11060.000000	91.305	107.5250
11200.000000	89.529	102.0905
11380.000000	87.293	98.7785
11500.000000	85.926	98.0959
11720.000000	83.729	98.6925
11800.000000	83.026	99.2854
12060.000000	81.043	101.9554
12200.000000	80.143	103.6588
12410.000000	78.991	106.3466
12500.000000	78.570	107.5015
12650.000000	77.962	109.3802
12800.000000	77.463	111.1628
13150.000000	76.667	114.7486
13200.000000	76.594	115.1803
13400.000000	76.399	116.6792
13600.000000	76.369	117.7450
13800.000000	76.517	118.2802
14000.000000	76.854	118.1779
14300.000000	77.756	116.5472
14500.000000	78.671	114.1473
14750.000000	80.224	108.8480
15000.000000	82.209	99.5157
15250.000000	84.362	83.7564
15500.000000	86.039	59.5449
15750.000000	86.591	29.3483
16000.000000	85.975	0.1875
16250.000000	84.796	-24.2743
16500.000000	83.728	-46.1703
16750.000000	83.000	-69.5382
17000.000000	82.305	-97.5050
17250.000000	81.067	-129.9016
17500.000000	78.909	-162.5764
17750.000000	75.913	168.4818
18000.000000	72.468	143.6622
18250.000000	68.960	121.0918
18500.000000	65.580	98.7191
18750.000000	62.330	74.9183
19000.000000	59.092	48.4254
19250.000000	55.668	18.2566
19500.000000	51.769	-15.3931
19750.000000	47.090	-47.7092
